File: cif_pxrd_calculator/example/txt/itwotheta/li0.5tio2_li0.5tio2_8262.txt
# 2theta [deg]	I_scaled [a.u.]	Wavelength = 0.20721 Å
0.000000e+00	0.000000e+00
1.042325e-02	0.000000e+00
2.084649e-02	0.000000e+00
3.126974e-02	0.000000e+00
4.169299e-02	0.000000e+00
5.211623e-02	0.000000e+00
6.253948e-02	0.000000e+00
7.296273e-02	0.000000e+00
8.338598e-02	0.000000e+00
9.380922e-02	0.000000e+00
1.042325e-01	0.000000e+00
1.146557e-01	0.000000e+00
1.250790e-01	0.000000e+00
1.355022e-01	0.000000e+00
1.459255e-01	0.000000e+00
1.563487e-01	0.000000e+00
1.667720e-01	0.000000e+00
1.771952e-01	0.000000e+00
1.876184e-01	0.000000e+00
1.980417e-01	0.000000e+00
2.084649e-01	0.000000e+00
2.188882e-01	0.000000e+00
2.293114e-01	0.000000e+00
2.397347e-01	0.000000e+00
2.501579e-01	0.000000e+00
2.605812e-01	0.000000e+00
2.710044e-01	0.000000e+00
2.814277e-01	0.000000e+00
2.918509e-01	0.000000e+00
3.022742e-01	0.000000e+00
3.126974e-01	0.000000e+00
3.231207e-01	0.000000e+00
3.335439e-01	0.000000e+00
3.439672e-01	0.000000e+00
3.543904e-01	0.000000e+00
3.648136e-01	0.000000e+00
3.752369e-01	0.000000e+00
3.856601e-01	0.000000e+00
3.960834e-01	0.000000e+00
4.065066e-01	0.000000e+00
4.169299e-01	0.000000e+00
4.273531e-01	0.000000e+00
4.377764e-01	0.000000e+00
4.481996e-01	0.000000e+00
4.586229e-01	0.000000e+00
4.690461e-01	0.000000e+00
4.794694e-01	0.000000e+00
4.898926e-01	0.000000e+00
5.003159e-01	0.000000e+00
5.107391e-01	0.000000e+00
5.211623e-01	0.000000e+00
5.315856e-01	0.000000e+00
5.420088e-01	0.000000e+00
5.524321e-01	0.000000e+00
5.628553e-01	0.000000e+00
5.732786e-01	0.000000e+00
5.837018e-01	0.000000e+00
5.941251e-01	0.000000e+00
6.045483e-01	0.000000e+00
6.149716e-01	0.000000e+00
6.253948e-01	0.000000e+00
6.358181e-01	0.000000e+00
6.462413e-01	0.000000e+00
6.566646e-01	0.000000e+00
6.670878e-01	0.000000e+00
6.775111e-01	0.000000e+00
6.879343e-01	0.000000e+00
6.983575e-01	0.000000e+00
7.087808e-01	0.000000e+00
7.192040e-01	0.000000e+00
7.296273e-01	0.000000e+00
7.400505e-01	0.000000e+00
7.504738e-01	0.000000e+00
7.608970e-01	0.000000e+00
7.713203e-01	0.000000e+00
7.817435e-01	0.000000e+00
7.921668e-01	0.000000e+00
8.025900e-01	0.000000e+00
8.130133e-01	0.000000e+00
8.234365e-01	0.000000e+00
8.338598e-01	0.000000e+00
8.442830e-01	0.000000e+00
8.547063e-01	0.000000e+00
8.651295e-01	0.000000e+00
8.755527e-01	0.000000e+00
8.859760e-01	0.000000e+00
8.963992e-01	0.000000e+00
9.068225e-01	0.000000e+00
9.172457e-01	0.000000e+00
9.276690e-01	0.000000e+00
9.380922e-01	0.000000e+00
9.485155e-01	0.000000e+00
9.589387e-01	0.000000e+00
9.693620e-01	0.000000e+00
9.797852e-01	0.000000e+00
9.902085e-01	0.000000e+00
1.000632e+00	0.000000e+00
1.011055e+00	0.000000e+00
1.021478e+00	0.000000e+00
1.031901e+00	0.000000e+00
1.042325e+00	0.000000e+00
1.052748e+00	0.000000e+00
1.063171e+00	0.000000e+00
1.073594e+00	0.000000e+00
1.084018e+00	0.000000e+00
1.094441e+00	0.000000e+00
1.104864e+00	0.000000e+00
1.115287e+00	0.000000e+00
1.125711e+00	0.000000e+00
1.136134e+00	0.000000e+00
1.146557e+00	0.000000e+00
1.156980e+00	0.000000e+00
1.167404e+00	0.000000e+00
1.177827e+00	0.000000e+00
1.188250e+00	4.642082e-41
1.198673e+00	1.392292e-37
1.209097e+00	7.801826e-35
1.219520e+00	8.167896e-33
1.229943e+00	1.597616e-31
1.240366e+00	5.838249e-31
1.250790e+00	3.986034e-31
1.261213e+00	5.084493e-32
1.271636e+00	1.211720e-33
1.282059e+00	5.395172e-36
1.292483e+00	4.488036e-39
1.302906e+00	0.000000e+00
1.313329e+00	0.000000e+00
1.323752e+00	0.000000e+00
1.334176e+00	0.000000e+00
1.344599e+00	0.000000e+00
1.355022e+00	0.000000e+00
1.365445e+00	0.000000e+00
1.375869e+00	0.000000e+00
1.386292e+00	0.000000e+00
1.396715e+00	0.000000e+00
1.407138e+00	0.000000e+00
1.417562e+00	0.000000e+00
1.427985e+00	0.000000e+00
1.438408e+00	0.000000e+00
1.448831e+00	0.000000e+00
1.459255e+00	0.000000e+00
1.469678e+00	0.000000e+00
1.480101e+00	0.000000e+00
1.490524e+00	0.000000e+00
1.500948e+00	0.000000e+00
1.511371e+00	0.000000e+00
1.521794e+00	0.000000e+00
1.532217e+00	0.000000e+00
1.542641e+00	0.000000e+00
1.553064e+00	0.000000e+00
1.563487e+00	0.000000e+00
1.573910e+00	0.000000e+00
1.584334e+00	0.000000e+00
1.594757e+00	0.000000e+00
1.605180e+00	0.000000e+00
1.615603e+00	0.000000e+00
1.626027e+00	0.000000e+00
1.636450e+00	0.000000e+00
1.646873e+00	0.000000e+00
1.657296e+00	0.000000e+00
1.667720e+00	0.000000e+00
1.678143e+00	0.000000e+00
1.688566e+00	0.000000e+00
1.698989e+00	0.000000e+00
1.709413e+00	0.000000e+00
1.719836e+00	0.000000e+00
1.730259e+00	0.000000e+00
1.740682e+00	0.000000e+00
1.751105e+00	0.000000e+00
1.761529e+00	0.000000e+00
1.771952e+00	0.000000e+00
1.782375e+00	0.000000e+00
1.792798e+00	0.000000e+00
1.803222e+00	0.000000e+00
1.813645e+00	0.000000e+00
1.824068e+00	0.000000e+00
1.834491e+00	0.000000e+00
1.844915e+00	0.000000e+00
1.855338e+00	0.000000e+00
1.865761e+00	0.000000e+00
1.876184e+00	0.000000e+00
1.886608e+00	0.000000e+00
1.897031e+00	0.000000e+00
1.907454e+00	0.000000e+00
1.917877e+00	0.000000e+00
1.928301e+00	0.000000e+00
1.938724e+00	0.000000e+00
1.949147e+00	0.000000e+00
1.959570e+00	0.000000e+00
1.969994e+00	0.000000e+00
1.980417e+00	0.000000e+00
1.990840e+00	0.000000e+00
2.001263e+00	0.000000e+00
2.011687e+00	0.000000e+00
2.022110e+00	0.000000e+00
2.032533e+00	0.000000e+00
2.042956e+00	0.000000e+00
2.053380e+00	0.000000e+00
2.063803e+00	0.000000e+00
2.074226e+00	0.000000e+00
2.084649e+00	0.000000e+00
2.095073e+00	0.000000e+00
2.105496e+00	0.000000e+00
2.115919e+00	0.000000e+00
2.126342e+00	0.000000e+00
2.136766e+00	0.000000e+00
2.147189e+00	0.000000e+00
2.157612e+00	0.000000e+00
2.168035e+00	0.000000e+00
2.178459e+00	0.000000e+00
2.188882e+00	0.000000e+00
2.199305e+00	0.000000e+00
2.209728e+00	0.000000e+00
2.220152e+00	0.000000e+00
2.230575e+00	0.000000e+00
2.240998e+00	0.000000e+00
2.251421e+00	0.000000e+00
2.261845e+00	0.000000e+00
2.272268e+00	0.000000e+00
2.282691e+00	0.000000e+00
2.293114e+00	0.000000e+00
2.303538e+00	0.000000e+00
2.313961e+00	1.559545e-42
2.324384e+00	3.447876e-39
2.334807e+00	1.424142e-36
2.345231e+00	1.099015e-34
2.355654e+00	1.584534e-33
2.366077e+00	4.268231e-33
2.376500e+00	2.148040e-33
2.386924e+00	2.019691e-34
2.397347e+00	3.547936e-36
2.407770e+00	1.164433e-38
2.418193e+00	7.140058e-42
2.428617e+00	0.000000e+00
2.439040e+00	1.869961e-10
2.449463e+00	2.246251e-07
2.459886e+00	5.041180e-05
2.470310e+00	2.113753e-03
2.480733e+00	1.655863e-02
2.491156e+00	2.423499e-02
2.501579e+00	6.626884e-03
2.512003e+00	3.385509e-04
2.522426e+00	3.231371e-06
2.532849e+00	5.762326e-09
2.543272e+00	1.919804e-12
2.553696e+00	0.000000e+00
2.564119e+00	0.000000e+00
2.574542e+00	0.000000e+00
2.584965e+00	0.000000e+00
2.595389e+00	0.000000e+00
2.605812e+00	0.000000e+00
2.616235e+00	0.000000e+00
2.626658e+00	2.981073e-08
2.637081e+00	2.639577e-05
2.647505e+00	4.366608e-03
2.657928e+00	1.349591e-01
2.668351e+00	7.793069e-01
2.678774e+00	8.407423e-01
2.689198e+00	1.694593e-01
2.699621e+00	6.381403e-03
2.710044e+00	4.489676e-05
2.720467e+00	5.901495e-08
2.730891e+00	1.449296e-11
2.741314e+00	0.000000e+00
2.751737e+00	0.000000e+00
2.762160e+00	0.000000e+00
2.772584e+00	0.000000e+00
2.783007e+00	0.000000e+00
2.793430e+00	0.000000e+00
2.803853e+00	0.000000e+00
2.814277e+00	0.000000e+00
2.824700e+00	0.000000e+00
2.835123e+00	0.000000e+00
2.845546e+00	0.000000e+00
2.855970e+00	0.000000e+00
2.866393e+00	0.000000e+00
2.876816e+00	0.000000e+00
2.887239e+00	0.000000e+00
2.897663e+00	0.000000e+00
2.908086e+00	0.000000e+00
2.918509e+00	0.000000e+00
2.928932e+00	0.000000e+00
2.939356e+00	0.000000e+00
2.949779e+00	0.000000e+00
2.960202e+00	0.000000e+00
2.970625e+00	0.000000e+00
2.981049e+00	0.000000e+00
2.991472e+00	0.000000e+00
3.001895e+00	0.000000e+00
3.012318e+00	0.000000e+00
3.022742e+00	0.000000e+00
3.033165e+00	0.000000e+00
3.043588e+00	0.000000e+00
3.054011e+00	0.000000e+00
3.064435e+00	0.000000e+00
3.074858e+00	0.000000e+00
3.085281e+00	0.000000e+00
3.095704e+00	0.000000e+00
3.106128e+00	0.000000e+00
3.116551e+00	0.000000e+00
3.126974e+00	0.000000e+00
3.137397e+00	0.000000e+00
3.147821e+00	0.000000e+00
3.158244e+00	0.000000e+00
3.168667e+00	0.000000e+00
3.179090e+00	0.000000e+00
3.189514e+00	0.000000e+00
3.199937e+00	0.000000e+00
3.210360e+00	0.000000e+00
3.220783e+00	0.000000e+00
3.231207e+00	0.000000e+00
3.241630e+00	0.000000e+00
3.252053e+00	0.000000e+00
3.262476e+00	0.000000e+00
3.272900e+00	0.000000e+00
3.283323e+00	0.000000e+00
3.293746e+00	0.000000e+00
3.304169e+00	0.000000e+00
3.314593e+00	0.000000e+00
3.325016e+00	0.000000e+00
3.335439e+00	0.000000e+00
3.345862e+00	0.000000e+00
3.356286e+00	0.000000e+00
3.366709e+00	0.000000e+00
3.377132e+00	8.897743e-13
3.387555e+00	3.620441e-09
3.397979e+00	2.752271e-06
3.408402e+00	3.909032e-04
3.418825e+00	1.037278e-02
3.429248e+00	5.142444e-02
3.439672e+00	4.763125e-02
3.450095e+00	8.242567e-03
3.460518e+00	2.664902e-04
3.470941e+00	1.609712e-06
3.481364e+00	1.816616e-09
3.491788e+00	0.000000e+00
3.502211e+00	0.000000e+00
3.512634e+00	0.000000e+00
3.523057e+00	0.000000e+00
3.533481e+00	0.000000e+00
3.543904e+00	0.000000e+00
3.554327e+00	0.000000e+00
3.564750e+00	0.000000e+00
3.575174e+00	0.000000e+00
3.585597e+00	0.000000e+00
3.596020e+00	0.000000e+00
3.606443e+00	0.000000e+00
3.616867e+00	0.000000e+00
3.627290e+00	0.000000e+00
3.637713e+00	0.000000e+00
3.648136e+00	0.000000e+00
3.658560e+00	0.000000e+00
3.668983e+00	0.000000e+00
3.679406e+00	3.342607e-41
3.689829e+00	7.389907e-38
3.700253e+00	3.052395e-35
3.710676e+00	2.355542e-33
3.721099e+00	3.396166e-32
3.731522e+00	9.148191e-32
3.741946e+00	4.603940e-32
3.752369e+00	4.328848e-33
3.762792e+00	7.604367e-35
3.773215e+00	2.495755e-37
3.783639e+00	1.530344e-40
3.794062e+00	0.000000e+00
3.804485e+00	0.000000e+00
3.814908e+00	0.000000e+00
3.825332e+00	0.000000e+00
3.835755e+00	0.000000e+00
3.846178e+00	0.000000e+00
3.856601e+00	0.000000e+00
3.867025e+00	0.000000e+00
3.877448e+00	0.000000e+00
3.887871e+00	0.000000e+00
3.898294e+00	0.000000e+00
3.908718e+00	0.000000e+00
3.919141e+00	0.000000e+00
3.929564e+00	0.000000e+00
3.939987e+00	0.000000e+00
3.950411e+00	0.000000e+00
3.960834e+00	0.000000e+00
3.971257e+00	0.000000e+00
3.981680e+00	1.535323e-41
3.992104e+00	2.148115e-38
4.002527e+00	5.615175e-36
4.012950e+00	2.742315e-34
4.023373e+00	2.502186e-33
4.033797e+00	4.265499e-33
4.044220e+00	1.358527e-33
4.054643e+00	8.083790e-35
4.065066e+00	8.986899e-37
4.075490e+00	1.866607e-39
4.085913e+00	7.243425e-43
4.096336e+00	0.000000e+00
4.106759e+00	0.000000e+00
4.117183e+00	0.000000e+00
4.127606e+00	0.000000e+00
4.138029e+00	0.000000e+00
4.148452e+00	0.000000e+00
4.158876e+00	0.000000e+00
4.169299e+00	3.535028e-40
4.179722e+00	4.945960e-37
4.190145e+00	1.292875e-34
4.200569e+00	6.314087e-33
4.210992e+00	5.761197e-32
4.221415e+00	9.821167e-32
4.231838e+00	3.127963e-32
4.242262e+00	1.861265e-33
4.252685e+00	2.069203e-35
4.263108e+00	4.297798e-38
4.273531e+00	1.667774e-41
4.283955e+00	0.000000e+00
4.294378e+00	0.000000e+00
4.304801e+00	0.000000e+00
4.315224e+00	0.000000e+00
4.325648e+00	0.000000e+00
4.336071e+00	0.000000e+00
4.346494e+00	0.000000e+00
4.356917e+00	0.000000e+00
4.367340e+00	1.421146e-10
4.377764e+00	3.141900e-07
4.388187e+00	1.297760e-04
4.398610e+00	1.001485e-02
4.409033e+00	1.443918e-01
4.419457e+00	3.889455e-01
4.429880e+00	1.957416e-01
4.440303e+00	1.840457e-02
4.450726e+00	3.233081e-04
4.461150e+00	1.061098e-06
4.471573e+00	6.506427e-10
4.481996e+00	0.000000e+00
4.492419e+00	0.000000e+00
4.502843e+00	0.000000e+00
4.513266e+00	0.000000e+00
4.523689e+00	0.000000e+00
4.534112e+00	0.000000e+00
4.544536e+00	0.000000e+00
4.554959e+00	0.000000e+00
4.565382e+00	0.000000e+00
4.575805e+00	0.000000e+00
4.586229e+00	0.000000e+00
4.596652e+00	0.000000e+00
4.607075e+00	0.000000e+00
4.617498e+00	0.000000e+00
4.627922e+00	4.770905e-10
4.638345e+00	4.224376e-07
4.648768e+00	6.988315e-05
4.659191e+00	2.159885e-03
4.669615e+00	1.247202e-02
4.680038e+00	1.345523e-02
4.690461e+00	2.712039e-03
4.700884e+00	1.119137e-04
4.711308e+00	1.364025e-03
4.721731e+00	3.713748e-02
4.732154e+00	1.961806e-01
4.742577e+00	1.991753e-01
4.753001e+00	3.855486e-02
4.763424e+00	1.413967e-03
4.773847e+00	9.779258e-06
4.784270e+00	1.275435e-08
4.794694e+00	1.038525e-07
4.805117e+00	4.996179e-05
4.815540e+00	4.490761e-03
4.825963e+00	7.541367e-02
4.836387e+00	2.366074e-01
4.846810e+00	1.386931e-01
4.857233e+00	1.518901e-02
4.867656e+00	3.119862e-04
4.878080e+00	4.463347e-05
4.888503e+00	2.922024e-04
4.898926e+00	3.671715e-04
4.909349e+00	8.619924e-05
4.919773e+00	3.780821e-06
4.930196e+00	3.158758e-08
4.940619e+00	5.357802e-07
4.951042e+00	8.862538e-05
4.961466e+00	2.739152e-03
4.971889e+00	1.581694e-02
4.982312e+00	1.706384e-02
4.992735e+00	3.439374e-03
5.003159e+00	1.295180e-04
5.013582e+00	9.112319e-07
5.024005e+00	1.197777e-09
5.034428e+00	2.941515e-13
5.044852e+00	0.000000e+00
5.055275e+00	0.000000e+00
5.065698e+00	0.000000e+00
5.076121e+00	0.000000e+00
5.086545e+00	0.000000e+00
5.096968e+00	0.000000e+00
5.107391e+00	0.000000e+00
5.117814e+00	0.000000e+00
5.128238e+00	0.000000e+00
5.138661e+00	0.000000e+00
5.149084e+00	0.000000e+00
5.159507e+00	0.000000e+00
5.169931e+00	0.000000e+00
5.180354e+00	0.000000e+00
5.190777e+00	0.000000e+00
5.201200e+00	0.000000e+00
5.211623e+00	0.000000e+00
5.222047e+00	0.000000e+00
5.232470e+00	0.000000e+00
5.242893e+00	5.058468e-11
5.253316e+00	1.302581e-07
5.263740e+00	6.266694e-05
5.274163e+00	5.632750e-03
5.284586e+00	9.459117e-02
5.295009e+00	2.967761e-01
5.305433e+00	1.739624e-01
5.315856e+00	1.905437e-02
5.326279e+00	6.444920e-04
5.336702e+00	4.278387e-03
5.347126e+00	1.341860e-02
5.357549e+00	7.865630e-03
5.367972e+00	8.614064e-04
5.378395e+00	1.762507e-05
5.388819e+00	6.737547e-08
5.399242e+00	4.811947e-11
5.409665e+00	0.000000e+00
5.420088e+00	0.000000e+00
5.430512e+00	0.000000e+00
5.440935e+00	2.118832e-41
5.451358e+00	5.456099e-38
5.461781e+00	1.525986e-10
5.472205e+00	2.135052e-07
5.482628e+00	5.581029e-05
5.493051e+00	2.725639e-03
5.503474e+00	2.486970e-02
5.513898e+00	4.239560e-02
5.524321e+00	1.350266e-02
5.534744e+00	8.034632e-04
5.545167e+00	8.932249e-06
5.555591e+00	1.855256e-08
5.566014e+00	7.199377e-12
5.576437e+00	0.000000e+00
5.586860e+00	0.000000e+00
5.597284e+00	0.000000e+00
5.607707e+00	0.000000e+00
5.618130e+00	0.000000e+00
5.628553e+00	0.000000e+00
5.638977e+00	0.000000e+00
5.649400e+00	0.000000e+00
5.659823e+00	0.000000e+00
5.670246e+00	0.000000e+00
5.680670e+00	0.000000e+00
5.691093e+00	0.000000e+00
5.701516e+00	0.000000e+00
5.711939e+00	0.000000e+00
5.722363e+00	0.000000e+00
5.732786e+00	0.000000e+00
5.743209e+00	0.000000e+00
5.753632e+00	0.000000e+00
5.764056e+00	0.000000e+00
5.774479e+00	0.000000e+00
5.784902e+00	0.000000e+00
5.795325e+00	0.000000e+00
5.805749e+00	0.000000e+00
5.816172e+00	0.000000e+00
5.826595e+00	0.000000e+00
5.837018e+00	0.000000e+00
5.847442e+00	0.000000e+00
5.857865e+00	0.000000e+00
5.868288e+00	0.000000e+00
5.878711e+00	0.000000e+00
5.889135e+00	0.000000e+00
5.899558e+00	0.000000e+00
5.909981e+00	0.000000e+00
5.920404e+00	0.000000e+00
5.930828e+00	5.237550e-11
5.941251e+00	1.157929e-07
5.951674e+00	4.782816e-05
5.962097e+00	3.690912e-03
5.972521e+00	5.321472e-02
5.982944e+00	1.433435e-01
5.993367e+00	7.214144e-02
6.003790e+00	7.118560e-03
6.014214e+00	1.049353e-02
6.024637e+00	5.990608e-02
6.035060e+00	6.462826e-02
6.045483e+00	1.302642e-02
6.055907e+00	4.905415e-04
6.066330e+00	3.451235e-06
6.076753e+00	4.536507e-09
6.087176e+00	1.114081e-12
6.097599e+00	0.000000e+00
6.108023e+00	0.000000e+00
6.118446e+00	0.000000e+00
6.128869e+00	0.000000e+00
6.139292e+00	0.000000e+00
6.149716e+00	0.000000e+00
6.160139e+00	0.000000e+00
6.170562e+00	8.325789e-41
6.180985e+00	1.326161e-37
6.191409e+00	4.038512e-35
6.201832e+00	2.351239e-33
6.212255e+00	2.614408e-32
6.222678e+00	5.541575e-32
6.233102e+00	2.233653e-32
6.243525e+00	1.707479e-33
6.253948e+00	2.468885e-35
6.264371e+00	6.735914e-38
6.274795e+00	3.460401e-41
6.285218e+00	0.000000e+00
6.295641e+00	2.953756e-11
6.306064e+00	3.046270e-08
6.316488e+00	5.869623e-06
6.326911e+00	2.113004e-04
6.337334e+00	1.421145e-03
6.347757e+00	1.785767e-03
6.358181e+00	4.192370e-04
6.368604e+00	1.865724e-05
6.379027e+00	6.050351e-05
6.389450e+00	2.530578e-03
6.399874e+00	1.982394e-02
6.410297e+00	2.901404e-02
6.420720e+00	7.933681e-03
6.431143e+00	4.053120e-04
6.441567e+00	3.868586e-06
6.451990e+00	6.898636e-09
6.462413e+00	2.298383e-12
6.472836e+00	0.000000e+00
6.483260e+00	0.000000e+00
6.493683e+00	0.000000e+00
6.504106e+00	0.000000e+00
6.514529e+00	0.000000e+00
6.524953e+00	0.000000e+00
6.535376e+00	0.000000e+00
6.545799e+00	0.000000e+00
6.556222e+00	0.000000e+00
6.566646e+00	0.000000e+00
6.577069e+00	0.000000e+00
6.587492e+00	0.000000e+00
6.597915e+00	0.000000e+00
6.608339e+00	1.301194e-11
6.618762e+00	1.820539e-08
6.629185e+00	4.758891e-06
6.639608e+00	2.324127e-04
6.650032e+00	2.120617e-03
6.660455e+00	3.616854e-03
6.670878e+00	1.627244e-03
6.681301e+00	2.330955e-02
6.691725e+00	2.120602e-01
6.702148e+00	3.614998e-01
6.712571e+00	1.151348e-01
6.722994e+00	6.850988e-03
6.733418e+00	7.616369e-05
6.743841e+00	1.581944e-07
6.754264e+00	6.138780e-11
6.764687e+00	0.000000e+00
6.775111e+00	2.353791e-13
6.785534e+00	8.222758e-10
6.795957e+00	5.366799e-07
6.806380e+00	6.544271e-05
6.816804e+00	1.490924e-03
6.827227e+00	6.346012e-03
6.837650e+00	5.073324e-03
6.848073e+00	3.560763e-03
6.858497e+00	5.500303e-02
6.868920e+00	2.009244e-01
6.879343e+00	1.371800e-01
6.889766e+00	1.749837e-02
6.900190e+00	4.170156e-04
6.910613e+00	1.856757e-06
6.921036e+00	1.544565e-09
6.931459e+00	0.000000e+00
6.941883e+00	0.000000e+00
6.952306e+00	0.000000e+00
6.962729e+00	0.000000e+00
6.973152e+00	0.000000e+00
6.983575e+00	0.000000e+00
6.993999e+00	0.000000e+00
7.004422e+00	0.000000e+00
7.014845e+00	0.000000e+00
7.025268e+00	0.000000e+00
7.035692e+00	0.000000e+00
7.046115e+00	0.000000e+00
7.056538e+00	4.769198e-40
7.066961e+00	4.918573e-37
7.077385e+00	9.477221e-35
7.087808e+00	3.411702e-33
7.098231e+00	2.294612e-32
7.108654e+00	2.883339e-32
7.119078e+00	6.769089e-33
7.129501e+00	2.969018e-34
7.139924e+00	2.433009e-36
7.150347e+00	3.724970e-39
7.160771e+00	2.997715e-12
7.171194e+00	5.689997e-09
7.181617e+00	2.017817e-06
7.192040e+00	1.336903e-04
7.202464e+00	1.654878e-03
7.212887e+00	3.827236e-03
7.223310e+00	1.674542e-03
7.233733e+00	2.011650e-03
7.244157e+00	3.154206e-02
7.254580e+00	9.895565e-02
7.265003e+00	5.800521e-02
7.275426e+00	6.352455e-03
7.285850e+00	1.299764e-04
7.296273e+00	4.968615e-07
7.306696e+00	3.548578e-10
7.317119e+00	0.000000e+00
7.327543e+00	0.000000e+00
7.337966e+00	0.000000e+00
7.348389e+00	0.000000e+00
7.358812e+00	0.000000e+00
7.369236e+00	4.431309e-39
7.379659e+00	4.570101e-36
7.390082e+00	8.805777e-34
7.400505e+00	3.169989e-32
7.410929e+00	2.132043e-31
7.421352e+00	1.322620e-10
7.431775e+00	1.364046e-07
7.442198e+00	2.628276e-05
7.452622e+00	9.461521e-04
7.463045e+00	6.363546e-03
7.473468e+00	7.996235e-03
7.483891e+00	1.877244e-03
7.494315e+00	8.426615e-05
7.504738e+00	2.357366e-04
7.515161e+00	5.355209e-03
7.525584e+00	2.279390e-02
7.536008e+00	1.812629e-02
7.546431e+00	2.693069e-03
7.556854e+00	7.475398e-05
7.567277e+00	3.876762e-07
7.577701e+00	3.756230e-10
7.588124e+00	0.000000e+00
7.598547e+00	0.000000e+00
7.608970e+00	0.000000e+00
7.619394e+00	0.000000e+00
7.629817e+00	0.000000e+00
7.640240e+00	0.000000e+00
7.650663e+00	0.000000e+00
7.661087e+00	0.000000e+00
7.671510e+00	0.000000e+00
7.681933e+00	0.000000e+00
7.692356e+00	0.000000e+00
7.702780e+00	0.000000e+00
7.713203e+00	0.000000e+00
7.723626e+00	0.000000e+00
7.734049e+00	8.857697e-11
7.744473e+00	1.958279e-07
7.754896e+00	8.088656e-05
7.765319e+00	6.242037e-03
7.775742e+00	8.999627e-02
7.786166e+00	2.424220e-01
7.796589e+00	1.221005e-01
7.807012e+00	1.409758e-02
7.817435e+00	1.328604e-02
7.827858e+00	1.270211e-02
7.838282e+00	3.190229e-03
7.848705e+00	4.191665e-04
7.859128e+00	2.133661e-05
7.869551e+00	2.331341e-07
7.879975e+00	4.832720e-10
7.890398e+00	1.875352e-13
7.900821e+00	0.000000e+00
7.911244e+00	0.000000e+00
7.921668e+00	1.361545e-10
7.932091e+00	1.404189e-07
7.942514e+00	2.705625e-05
7.952937e+00	9.739970e-04
7.963361e+00	6.550823e-03
7.973784e+00	8.231562e-03
7.984207e+00	1.932511e-03
7.994630e+00	9.608446e-05
8.005054e+00	1.018433e-03
8.015477e+00	1.709095e-02
8.025900e+00	5.362228e-02
8.036323e+00	3.147413e-02
8.046747e+00	6.699745e-03
8.057170e+00	4.703590e-02
8.067593e+00	1.265103e-01
8.078016e+00	6.366774e-02
8.088440e+00	5.986349e-03
8.098863e+00	1.051605e-04
8.109286e+00	3.451372e-07
8.119709e+00	2.502802e-10
8.130133e+00	7.336082e-08
8.140556e+00	2.601561e-05
8.150979e+00	1.723662e-03
8.161402e+00	2.133626e-02
8.171826e+00	4.934379e-02
8.182249e+00	2.132038e-02
8.192672e+00	1.721098e-03
8.203095e+00	2.595759e-05
8.213519e+00	7.320104e-08
8.223942e+00	1.288776e-07
8.234365e+00	5.321688e-05
8.244788e+00	4.106761e-03
8.255212e+00	5.921034e-02
8.265635e+00	1.594938e-01
8.276058e+00	8.026724e-02
8.286481e+00	7.547114e-03
8.296905e+00	1.325781e-04
8.307328e+00	4.351216e-07
8.317751e+00	2.668073e-10
8.328174e+00	0.000000e+00
8.338598e+00	0.000000e+00
8.349021e+00	0.000000e+00
8.359444e+00	2.246737e-41
8.369867e+00	3.143475e-38
8.380291e+00	8.217050e-36
8.390714e+00	2.920738e-13
8.401137e+00	7.521047e-10
8.411560e+00	3.618363e-07
8.421984e+00	3.252326e-05
8.432407e+00	5.461654e-04
8.442830e+00	1.713575e-03
8.453253e+00	1.006729e-03
8.463677e+00	5.498078e-04
8.474100e+00	1.600477e-02
8.484523e+00	1.137478e-01
8.494946e+00	1.840896e-01
8.505370e+00	9.493536e-02
8.515793e+00	1.631617e-02
8.526216e+00	1.051557e-03
8.536639e+00	2.597452e-03
8.547063e+00	3.257122e-03
8.557486e+00	7.646583e-04
8.567909e+00	3.353900e-05
8.578332e+00	2.748406e-07
8.588756e+00	4.207847e-10
8.599179e+00	1.203614e-13
8.609602e+00	0.000000e+00
8.620025e+00	0.000000e+00
8.630449e+00	1.526280e-10
8.640872e+00	1.574084e-07
8.651295e+00	3.032982e-05
8.661718e+00	1.091842e-03
8.672142e+00	7.343416e-03
8.682565e+00	9.227510e-03
8.692988e+00	2.166302e-03
8.703411e+00	9.501709e-05
8.713834e+00	7.786326e-07
8.724258e+00	1.405831e-09
8.734681e+00	1.892501e-07
8.745104e+00	3.130727e-05
8.755527e+00	9.676165e-04
8.765951e+00	5.587401e-03
8.776374e+00	6.028700e-03
8.786797e+00	1.244948e-03
8.797220e+00	4.303205e-04
8.807644e+00	2.344854e-03
8.818067e+00	3.781350e-03
8.828490e+00	2.138791e-03
8.838913e+00	8.734209e-03
8.849337e+00	1.476954e-02
8.859760e+00	4.703732e-03
8.870183e+00	2.798911e-04
8.880606e+00	3.111601e-06
8.891030e+00	6.462891e-09
8.901453e+00	2.507945e-12
8.911876e+00	4.987198e-34
8.922299e+00	1.020421e-35
8.932723e+00	1.297879e-12
8.943146e+00	3.342103e-09
8.953569e+00	1.607880e-06
8.963992e+00	1.445225e-04
8.974416e+00	2.426977e-03
8.984839e+00	7.614547e-03
8.995262e+00	4.464131e-03
9.005685e+00	6.203263e-04
9.016109e+00	4.744250e-03
9.026532e+00	3.184122e-02
9.036955e+00	4.001065e-02
9.047378e+00	9.393126e-03
9.057802e+00	4.119958e-04
9.068225e+00	3.376165e-06
9.078648e+00	5.168954e-09
9.089071e+00	1.478529e-12
9.099495e+00	0.000000e+00
9.109918e+00	0.000000e+00
9.120341e+00	0.000000e+00
9.130764e+00	0.000000e+00
9.141188e+00	0.000000e+00
9.151611e+00	6.480178e-11
9.162034e+00	1.230010e-07
9.172457e+00	4.361928e-05
9.182881e+00	2.889991e-03
9.193304e+00	3.577360e-02
9.203727e+00	8.273265e-02
9.214150e+00	3.574698e-02
9.224574e+00	2.885692e-03
9.234997e+00	4.352200e-05
9.245420e+00	1.226354e-07
9.255843e+00	6.456109e-11
9.266267e+00	0.000000e+00
9.276690e+00	0.000000e+00
9.287113e+00	0.000000e+00
9.297536e+00	0.000000e+00
9.307960e+00	2.215975e-11
9.318383e+00	3.611225e-08
9.328806e+00	1.099493e-05
9.339229e+00	6.254296e-04
9.349653e+00	6.646799e-03
9.360076e+00	1.319760e-02
9.370499e+00	4.895820e-03
9.380922e+00	3.393158e-04
9.391346e+00	4.393706e-06
9.401769e+00	1.302528e-08
9.412192e+00	9.302399e-07
9.422615e+00	9.159617e-05
9.433039e+00	2.365930e-03
9.443462e+00	1.406474e-02
9.453885e+00	1.715859e-02
9.464308e+00	7.577339e-03
9.474732e+00	1.650977e-02
9.485155e+00	1.819890e-02
9.495578e+00	5.364404e-03
9.506001e+00	3.735043e-04
9.516425e+00	5.392542e-06
9.526848e+00	1.011585e-05
9.537271e+00	7.802044e-04
9.547694e+00	1.134987e-02
9.558117e+00	3.325469e-02
9.568541e+00	3.003094e-02
9.578964e+00	1.513808e-02
9.589387e+00	2.396933e-03
9.599810e+00	7.676423e-05
9.610234e+00	4.632397e-07
9.620657e+00	5.227251e-10
9.631080e+00	2.768326e-13
9.641503e+00	8.302997e-10
9.651927e+00	4.652653e-07
9.662350e+00	4.870961e-05
9.672773e+00	9.527452e-04
9.683196e+00	3.481677e-03
9.693620e+00	2.381740e-03
9.704043e+00	6.621185e-04
9.714466e+00	5.181801e-03
9.724889e+00	1.393869e-02
9.735313e+00	7.014815e-03
9.745736e+00	6.639375e-04
9.756159e+00	3.012369e-04
9.766582e+00	3.585511e-03
9.777006e+00	8.297219e-03
9.787429e+00	3.686593e-03
9.797852e+00	6.686800e-04
9.808275e+00	2.634367e-04
9.818699e+00	3.305925e-05
9.829122e+00	7.875712e-07
9.839545e+00	3.506705e-09
9.849968e+00	2.865909e-10
9.860392e+00	1.851472e-07
9.870815e+00	2.257683e-05
9.881238e+00	5.143500e-04
9.891661e+00	2.190071e-03
9.902085e+00	1.802734e-03
9.912508e+00	1.149251e-03
9.922931e+00	2.406169e-03
9.933354e+00	1.214224e-03
9.943778e+00	5.690385e-04
9.954201e+00	5.640639e-03
9.964624e+00	1.304035e-02
9.975047e+00	5.634450e-03
9.985471e+00	4.548437e-04
9.995894e+00	6.859950e-06
1.000632e+01	1.932982e-08
1.001674e+01	1.017614e-11
1.002716e+01	1.741396e-11
1.003759e+01	3.305363e-08
1.004801e+01	1.172166e-05
1.005843e+01	7.766171e-04
1.006886e+01	9.613314e-03
1.007928e+01	2.223246e-02
1.008970e+01	9.606162e-03
1.010013e+01	7.754621e-04
1.011055e+01	1.169551e-05
1.012097e+01	3.295538e-08
1.013140e+01	1.734928e-11
1.014182e+01	4.449024e-12
1.015224e+01	3.939367e-09
1.016267e+01	6.516830e-07
1.017309e+01	2.014162e-05
1.018351e+01	1.163056e-04
1.019394e+01	1.254745e-04
1.020436e+01	2.544281e-05
1.021478e+01	3.513118e-05
1.022521e+01	1.433115e-03
1.023563e+01	1.122663e-02
1.024605e+01	1.643428e-02
1.025648e+01	4.735740e-03
1.026690e+01	3.729656e-03
1.027732e+01	9.430539e-03
1.028774e+01	4.775283e-03
1.029817e+01	1.721417e-03
1.030859e+01	9.998088e-03
1.031901e+01	1.462162e-02
1.032944e+01	3.998171e-03
1.033986e+01	2.045333e-04
1.035028e+01	6.406285e-05
1.036071e+01	2.604396e-03
1.037113e+01	2.040219e-02
1.038155e+01	2.986036e-02
1.039198e+01	8.165101e-03
1.040240e+01	4.171346e-04
1.041282e+01	3.981430e-06
1.042325e+01	7.361305e-09
1.043367e+01	1.706385e-07
1.044409e+01	2.080736e-05
1.045452e+01	4.740356e-04
1.046494e+01	2.017684e-03
1.047536e+01	1.604515e-03
1.048579e+01	2.383868e-04
1.049621e+01	6.617119e-06
1.050663e+01	3.431657e-08
1.051706e+01	3.324964e-11
1.052748e+01	0.000000e+00
1.053790e+01	0.000000e+00
1.054833e+01	1.073298e-11
1.055875e+01	2.641329e-08
1.056917e+01	1.217818e-05
1.057960e+01	1.149588e-03
1.059002e+01	2.305862e-02
1.060044e+01	9.955451e-02
1.061087e+01	9.049563e-02
1.062129e+01	1.665054e-02
1.063171e+01	5.990908e-04
1.064214e+01	4.123289e-06
1.065256e+01	5.363695e-09
1.066298e+01	3.964066e-10
1.067340e+01	3.507234e-07
1.068383e+01	5.838420e-05
1.069425e+01	1.832622e-03
1.070467e+01	1.098794e-02
1.071510e+01	1.294708e-02
1.072552e+01	3.198092e-03
1.073594e+01	1.560246e-03
1.074637e+01	9.347894e-03
1.075679e+01	1.174363e-02
1.076721e+01	2.757000e-03
1.077764e+01	1.209259e-04
1.078806e+01	9.935107e-07
1.079848e+01	1.060635e-06
1.080891e+01	8.173241e-05
1.081933e+01	1.178399e-03
1.082975e+01	3.174233e-03
1.084018e+01	1.597472e-03
1.085060e+01	1.502020e-04
1.086102e+01	2.638558e-06
1.087145e+01	8.659754e-09
1.088187e+01	5.309977e-12
1.089229e+01	0.000000e+00
1.090272e+01	0.000000e+00
1.091314e+01	3.976021e-11
1.092356e+01	4.776111e-08
1.093399e+01	1.071885e-05
1.094441e+01	4.494386e-04
1.095483e+01	3.520793e-03
1.096526e+01	5.153030e-03
1.097568e+01	1.419150e-03
1.098610e+01	5.083731e-04
1.099653e+01	3.814226e-03
1.100695e+01	7.871620e-03
1.101737e+01	5.188245e-03
1.102780e+01	7.936782e-03
1.103822e+01	2.147323e-02
1.104864e+01	1.693370e-02
1.105907e+01	3.558163e-03
1.106949e+01	3.579403e-03
1.107991e+01	7.967169e-03
1.109033e+01	3.441975e-03
1.110076e+01	2.778549e-04
1.111118e+01	4.190606e-06
1.112160e+01	1.180820e-08
1.113203e+01	6.216399e-12
1.114245e+01	0.000000e+00
1.115287e+01	0.000000e+00
1.116330e+01	7.214185e-43
1.117372e+01	1.175647e-39
1.118414e+01	3.579438e-37
1.119457e+01	3.130191e-12
1.120499e+01	7.139160e-09
1.121541e+01	3.121741e-06
1.122584e+01	2.798266e-04
1.123626e+01	5.673973e-03
1.124668e+01	2.822076e-02
1.125711e+01	3.335281e-02
1.126753e+01	8.465907e-03
1.127795e+01	4.285487e-04
1.128838e+01	4.191093e-06
1.129880e+01	8.255752e-09
1.130922e+01	3.540754e-07
1.131965e+01	5.857364e-05
1.133007e+01	1.810341e-03
1.134049e+01	1.045362e-02
1.135092e+01	1.127780e-02
1.136134e+01	2.299404e-03
1.137176e+01	1.580372e-03
1.138219e+01	1.588641e-02
1.139261e+01	3.154217e-02
1.140303e+01	1.170097e-02
1.141346e+01	8.114918e-04
1.142388e+01	7.507735e-05
1.143430e+01	1.471801e-03
1.144473e+01	6.289112e-03
1.145515e+01	5.194359e-03
1.146557e+01	1.054350e-03
1.147599e+01	1.065444e-04
1.148642e+01	4.500475e-06
1.149684e+01	4.204243e-08
1.150726e+01	7.478795e-11
1.151769e+01	2.491671e-14
1.152811e+01	0.000000e+00
1.153853e+01	0.000000e+00
1.154896e+01	0.000000e+00
1.155938e+01	0.000000e+00
1.156980e+01	0.000000e+00
1.158023e+01	0.000000e+00
1.159065e+01	0.000000e+00
1.160107e+01	0.000000e+00
1.161150e+01	0.000000e+00
1.162192e+01	0.000000e+00
1.163234e+01	0.000000e+00
1.164277e+01	0.000000e+00
1.165319e+01	0.000000e+00
1.166361e+01	0.000000e+00
1.167404e+01	0.000000e+00
1.168446e+01	0.000000e+00
1.169488e+01	0.000000e+00
1.170531e+01	7.720006e-11
1.171573e+01	1.080128e-07
1.172615e+01	2.823457e-05
1.173658e+01	1.378908e-03
1.174700e+01	1.258165e-02
1.175742e+01	2.144805e-02
1.176785e+01	6.831032e-03
1.177827e+01	4.064742e-04
1.178869e+01	4.518848e-06
1.179912e+01	9.385788e-09
1.180954e+01	1.398072e-11
1.181996e+01	1.684802e-08
1.183039e+01	5.129639e-06
1.184081e+01	2.917916e-04
1.185123e+01	3.101037e-03
1.186166e+01	6.157286e-03
1.187208e+01	2.284125e-03
1.188250e+01	1.584477e-04
1.189292e+01	2.928454e-05
1.190335e+01	9.804252e-04
1.191377e+01	6.594023e-03
1.192419e+01	8.285852e-03
1.193462e+01	1.945953e-03
1.194504e+01	1.017965e-04
1.195546e+01	8.394192e-05
1.196589e+01	7.067065e-04
1.197631e+01	5.949225e-03
1.198673e+01	1.012785e-02
1.199716e+01	3.225567e-03
1.200758e+01	1.919901e-04
1.201800e+01	1.289936e-05
1.202843e+01	3.875548e-04
1.203885e+01	2.606587e-03
1.204927e+01	3.283377e-03
1.205970e+01	1.107101e-03
1.207012e+01	2.682869e-03
1.208054e+01	3.878842e-03
1.209097e+01	1.225996e-03
1.210139e+01	4.275401e-03
1.211181e+01	2.542701e-02
1.212224e+01	4.362924e-02
1.213266e+01	2.078138e-02
1.214308e+01	1.183728e-02
1.215351e+01	3.074078e-02
1.216393e+01	1.887301e-02
1.217435e+01	6.418167e-03
1.218478e+01	4.161660e-03
1.219520e+01	7.133573e-04
1.220562e+01	2.305887e-05
1.221605e+01	2.360777e-07
1.222647e+01	8.700421e-06
1.223689e+01	1.461042e-04
1.224732e+01	4.583960e-04
1.225774e+01	2.686998e-04
1.226816e+01	2.942672e-05
1.227858e+01	6.020945e-07
1.228901e+01	2.301630e-09
1.229943e+01	2.333821e-11
1.230985e+01	1.920920e-08
1.232028e+01	3.177787e-06
1.233070e+01	9.827233e-05
1.234112e+01	5.821517e-04
1.235155e+01	1.345412e-03
1.236197e+01	6.816694e-03
1.237239e+01	1.141511e-02
1.238282e+01	3.675333e-03
1.239324e+01	1.700339e-03
1.240366e+01	9.987289e-03
1.241409e+01	1.277675e-02
1.242451e+01	6.689165e-03
1.243493e+01	1.344464e-02
1.244536e+01	1.208548e-02
1.245578e+01	1.442374e-02
1.246620e+01	1.570946e-02
1.247663e+01	4.294855e-03
1.248705e+01	2.572130e-04
1.249747e+01	2.187348e-04
1.250790e+01	5.172434e-03
1.251832e+01	2.438434e-02
1.252874e+01	2.342854e-02
1.253917e+01	4.766744e-03
1.254959e+01	2.088383e-04
1.256001e+01	3.666000e-06
1.257044e+01	1.049664e-04
1.258086e+01	1.821358e-03
1.259128e+01	8.434939e-03
1.260171e+01	8.530505e-03
1.261213e+01	1.690313e-03
1.262255e+01	6.337520e-05
1.263298e+01	4.453851e-07
1.264340e+01	5.979136e-10
1.265382e+01	9.607709e-09
1.266425e+01	1.364636e-06
1.267467e+01	3.625006e-05
1.268509e+01	1.832059e-04
1.269551e+01	2.283354e-04
1.270594e+01	2.277344e-04
1.271636e+01	4.441475e-04
1.272678e+01	4.757263e-03
1.273721e+01	1.278113e-02
1.274763e+01	6.432576e-03
1.275805e+01	6.165724e-04
1.276848e+01	6.920466e-05
1.277890e+01	6.878183e-05
1.278932e+01	3.419513e-04
1.279975e+01	1.417042e-03
1.281017e+01	1.260163e-03
1.282059e+01	3.115507e-03
1.283102e+01	1.213471e-02
1.284144e+01	9.410431e-03
1.285186e+01	2.212114e-03
1.286229e+01	2.737005e-03
1.287271e+01	1.937349e-03
1.288313e+01	3.800180e-03
1.289356e+01	1.240396e-02
1.290398e+01	1.550700e-02
1.291440e+01	4.825701e-03
1.292483e+01	3.053826e-04
1.293525e+01	3.736712e-06
1.294567e+01	8.713650e-09
1.295610e+01	3.847749e-12
1.296652e+01	6.704257e-12
1.297694e+01	3.756786e-09
1.298737e+01	3.933059e-07
1.299779e+01	7.692944e-06
1.300821e+01	2.811424e-05
1.301864e+01	2.018890e-05
1.302906e+01	1.237887e-04
1.303948e+01	2.764573e-03
1.304991e+01	1.178387e-02
1.306033e+01	9.807138e-03
1.307075e+01	3.558030e-03
1.308117e+01	2.036271e-03
1.309160e+01	1.702410e-03
1.310202e+01	9.766151e-03
1.311244e+01	1.443857e-02
1.312287e+01	4.272871e-03
1.313329e+01	2.452130e-04
1.314371e+01	2.679195e-06
1.315414e+01	5.519347e-09
1.316456e+01	2.126387e-12
1.317498e+01	0.000000e+00
1.318541e+01	0.000000e+00
1.319583e+01	4.868596e-13
1.320625e+01	1.981004e-09
1.321668e+01	1.505966e-06
1.322710e+01	2.138913e-04
1.323752e+01	5.675696e-03
1.324795e+01	2.813801e-02
1.325837e+01	2.606337e-02
1.326879e+01	4.553499e-03
1.327922e+01	5.417895e-04
1.328964e+01	6.766073e-04
1.330006e+01	2.554271e-04
1.331049e+01	4.472289e-04
1.332091e+01	1.128306e-03
1.333133e+01	3.240832e-03
1.334176e+01	5.828500e-03
1.335218e+01	2.154306e-03
1.336260e+01	1.492943e-04
1.337303e+01	2.649089e-06
1.338345e+01	2.216561e-05
1.339387e+01	1.377017e-04
1.340430e+01	7.023655e-04
1.341472e+01	6.027207e-03
1.342514e+01	1.191324e-02
1.343557e+01	4.418990e-03
1.344599e+01	3.063412e-04
1.345641e+01	2.640345e-05
1.346684e+01	1.276349e-03
1.347726e+01	1.356789e-02
1.348768e+01	2.730647e-02
1.349810e+01	1.730117e-02
1.350853e+01	2.740665e-02
1.351895e+01	1.830942e-02
1.352937e+01	3.965501e-03
1.353980e+01	8.180977e-03
1.355022e+01	7.526421e-03
1.356064e+01	1.302402e-03
1.357107e+01	4.210790e-05
1.358149e+01	2.543492e-07
1.359191e+01	2.870420e-10
1.360234e+01	2.309896e-35
1.361276e+01	1.128097e-33
1.362318e+01	1.029316e-32
1.363361e+01	1.825417e-12
1.364403e+01	4.700540e-09
1.365445e+01	2.261422e-06
1.366488e+01	2.032654e-04
1.367530e+01	3.413451e-03
1.368572e+01	1.070957e-02
1.369615e+01	6.277669e-03
1.370657e+01	6.875005e-04
1.371699e+01	1.406682e-05
1.372742e+01	5.806676e-08
1.373784e+01	1.522611e-06
1.374826e+01	1.008779e-04
1.375869e+01	1.248711e-03
1.376911e+01	2.887862e-03
1.377953e+01	1.247782e-03
1.378996e+01	1.007288e-04
1.380038e+01	2.336214e-06
1.381080e+01	1.351655e-04
1.382123e+01	4.177480e-03
1.383165e+01	2.413700e-02
1.384207e+01	2.700689e-02
1.385250e+01	1.741478e-02
1.386292e+01	2.839968e-02
1.387334e+01	1.462714e-02
1.388377e+01	2.029690e-02
1.389419e+01	2.833078e-02
1.390461e+01	9.416134e-03
1.391503e+01	1.199309e-02
1.392546e+01	2.075562e-02
1.393588e+01	3.404301e-02
1.394630e+01	2.861102e-02
1.395673e+01	5.165415e-03
1.396715e+01	1.921865e-04
1.397757e+01	6.934766e-04
1.398800e+01	8.568978e-03
1.399842e+01	1.982456e-02
1.400884e+01	8.874048e-03
1.401927e+01	3.166354e-03
1.402969e+01	3.790722e-03
1.404011e+01	1.568491e-03
1.405054e+01	3.894573e-03
1.406096e+01	6.510131e-03
1.407138e+01	2.073051e-03
1.408181e+01	1.278602e-04
1.409223e+01	4.063972e-04
1.410265e+01	6.801632e-03
1.411308e+01	2.133984e-02
1.412350e+01	1.250886e-02
1.413392e+01	1.369911e-03
1.414435e+01	2.802948e-05
1.415477e+01	1.071485e-07
1.416519e+01	7.652529e-11
1.417562e+01	0.000000e+00
1.418604e+01	4.301978e-12
1.419646e+01	7.027511e-09
1.420689e+01	2.166513e-06
1.421731e+01	1.327711e-04
1.422773e+01	2.042596e-03
1.423816e+01	1.187343e-02
1.424858e+01	2.248466e-02
1.425900e+01	9.381963e-03
1.426943e+01	9.889402e-04
1.427985e+01	2.107872e-03
1.429027e+01	5.764170e-03
1.430069e+01	3.313103e-03
1.431112e+01	3.618471e-04
1.432154e+01	8.277056e-06
1.433196e+01	5.872041e-05
1.434239e+01	7.577072e-04
1.435281e+01	2.036916e-03
1.436323e+01	1.365246e-03
1.437366e+01	2.648632e-04
1.438408e+01	4.023165e-05
1.439450e+01	9.737304e-04
1.440493e+01	6.548106e-03
1.441535e+01	8.229576e-03
1.442577e+01	1.969987e-03
1.443620e+01	3.914982e-04
1.444662e+01	8.938967e-04
1.445704e+01	9.469923e-04
1.446747e+01	2.649735e-04
1.447789e+01	5.960972e-05
1.448831e+01	6.395749e-04
1.449874e+01	1.722385e-03
1.450916e+01	8.679622e-04
1.451958e+01	1.621423e-04
1.453001e+01	1.391707e-03
1.454043e+01	4.924921e-03
1.455085e+01	4.513961e-03
1.456128e+01	6.632498e-03
1.457170e+01	1.769622e-02
1.458212e+01	1.086239e-02
1.459255e+01	5.319150e-03
1.460297e+01	6.224387e-03
1.461339e+01	3.093610e-03
1.462382e+01	5.266222e-03
1.463424e+01	3.537849e-03
1.464466e+01	4.511799e-04
1.465509e+01	1.149191e-05
1.466551e+01	3.624637e-05
1.467593e+01	3.429710e-04
1.468636e+01	9.767889e-04
1.469678e+01	2.596791e-03
1.470720e+01	3.287912e-03
1.471762e+01	4.692764e-03
1.472805e+01	5.509669e-03
1.473847e+01	2.174173e-03
1.474889e+01	2.970261e-04
1.475932e+01	1.019202e-05
1.476974e+01	7.040103e-08
1.478016e+01	9.221865e-11
1.479059e+01	3.119276e-11
1.480101e+01	3.214656e-08
1.481143e+01	6.194543e-06
1.482186e+01	2.232609e-04
1.483228e+01	1.530158e-03
1.484270e+01	2.581264e-03
1.485313e+01	4.962862e-03
1.486355e+01	1.031985e-02
1.487397e+01	6.239467e-03
1.488440e+01	7.770977e-04
1.489482e+01	4.472768e-05
1.490524e+01	9.934428e-04
1.491567e+01	7.047306e-03
1.492609e+01	9.391464e-03
1.493651e+01	2.351756e-03
1.494694e+01	1.511792e-04
1.495736e+01	7.942545e-04
1.496778e+01	2.898912e-03
1.497821e+01	1.979216e-03
1.498863e+01	2.524642e-04
1.499905e+01	6.016648e-06
1.500000e+01	3.941819e-06