File: cif_pxrd_calculator/example/txt/itwotheta/li0.5tio2_Imma_36449.txt
# 2theta [deg]	I_scaled [a.u.]	Wavelength = 0.20721 Å
0.000000e+00	0.000000e+00
1.042325e-02	0.000000e+00
2.084649e-02	0.000000e+00
3.126974e-02	0.000000e+00
4.169299e-02	0.000000e+00
5.211623e-02	0.000000e+00
6.253948e-02	0.000000e+00
7.296273e-02	0.000000e+00
8.338598e-02	0.000000e+00
9.380922e-02	0.000000e+00
1.042325e-01	0.000000e+00
1.146557e-01	0.000000e+00
1.250790e-01	0.000000e+00
1.355022e-01	0.000000e+00
1.459255e-01	0.000000e+00
1.563487e-01	0.000000e+00
1.667720e-01	0.000000e+00
1.771952e-01	0.000000e+00
1.876184e-01	0.000000e+00
1.980417e-01	0.000000e+00
2.084649e-01	0.000000e+00
2.188882e-01	0.000000e+00
2.293114e-01	0.000000e+00
2.397347e-01	0.000000e+00
2.501579e-01	0.000000e+00
2.605812e-01	0.000000e+00
2.710044e-01	0.000000e+00
2.814277e-01	0.000000e+00
2.918509e-01	0.000000e+00
3.022742e-01	0.000000e+00
3.126974e-01	0.000000e+00
3.231207e-01	0.000000e+00
3.335439e-01	0.000000e+00
3.439672e-01	0.000000e+00
3.543904e-01	0.000000e+00
3.648136e-01	0.000000e+00
3.752369e-01	0.000000e+00
3.856601e-01	0.000000e+00
3.960834e-01	0.000000e+00
4.065066e-01	0.000000e+00
4.169299e-01	0.000000e+00
4.273531e-01	0.000000e+00
4.377764e-01	0.000000e+00
4.481996e-01	0.000000e+00
4.586229e-01	0.000000e+00
4.690461e-01	0.000000e+00
4.794694e-01	0.000000e+00
4.898926e-01	0.000000e+00
5.003159e-01	0.000000e+00
5.107391e-01	0.000000e+00
5.211623e-01	0.000000e+00
5.315856e-01	0.000000e+00
5.420088e-01	0.000000e+00
5.524321e-01	0.000000e+00
5.628553e-01	0.000000e+00
5.732786e-01	0.000000e+00
5.837018e-01	0.000000e+00
5.941251e-01	0.000000e+00
6.045483e-01	0.000000e+00
6.149716e-01	0.000000e+00
6.253948e-01	0.000000e+00
6.358181e-01	0.000000e+00
6.462413e-01	0.000000e+00
6.566646e-01	0.000000e+00
6.670878e-01	0.000000e+00
6.775111e-01	0.000000e+00
6.879343e-01	0.000000e+00
6.983575e-01	0.000000e+00
7.087808e-01	0.000000e+00
7.192040e-01	0.000000e+00
7.296273e-01	0.000000e+00
7.400505e-01	0.000000e+00
7.504738e-01	0.000000e+00
7.608970e-01	0.000000e+00
7.713203e-01	0.000000e+00
7.817435e-01	0.000000e+00
7.921668e-01	0.000000e+00
8.025900e-01	0.000000e+00
8.130133e-01	0.000000e+00
8.234365e-01	0.000000e+00
8.338598e-01	0.000000e+00
8.442830e-01	0.000000e+00
8.547063e-01	0.000000e+00
8.651295e-01	0.000000e+00
8.755527e-01	0.000000e+00
8.859760e-01	0.000000e+00
8.963992e-01	0.000000e+00
9.068225e-01	0.000000e+00
9.172457e-01	0.000000e+00
9.276690e-01	0.000000e+00
9.380922e-01	0.000000e+00
9.485155e-01	0.000000e+00
9.589387e-01	0.000000e+00
9.693620e-01	0.000000e+00
9.797852e-01	0.000000e+00
9.902085e-01	0.000000e+00
1.000632e+00	0.000000e+00
1.011055e+00	0.000000e+00
1.021478e+00	0.000000e+00
1.031901e+00	0.000000e+00
1.042325e+00	0.000000e+00
1.052748e+00	0.000000e+00
1.063171e+00	0.000000e+00
1.073594e+00	0.000000e+00
1.084018e+00	0.000000e+00
1.094441e+00	0.000000e+00
1.104864e+00	0.000000e+00
1.115287e+00	0.000000e+00
1.125711e+00	0.000000e+00
1.136134e+00	0.000000e+00
1.146557e+00	0.000000e+00
1.156980e+00	0.000000e+00
1.167404e+00	0.000000e+00
1.177827e+00	0.000000e+00
1.188250e+00	0.000000e+00
1.198673e+00	0.000000e+00
1.209097e+00	0.000000e+00
1.219520e+00	0.000000e+00
1.229943e+00	0.000000e+00
1.240366e+00	0.000000e+00
1.250790e+00	0.000000e+00
1.261213e+00	0.000000e+00
1.271636e+00	0.000000e+00
1.282059e+00	0.000000e+00
1.292483e+00	0.000000e+00
1.302906e+00	0.000000e+00
1.313329e+00	0.000000e+00
1.323752e+00	0.000000e+00
1.334176e+00	0.000000e+00
1.344599e+00	0.000000e+00
1.355022e+00	0.000000e+00
1.365445e+00	0.000000e+00
1.375869e+00	0.000000e+00
1.386292e+00	0.000000e+00
1.396715e+00	0.000000e+00
1.407138e+00	0.000000e+00
1.417562e+00	0.000000e+00
1.427985e+00	0.000000e+00
1.438408e+00	0.000000e+00
1.448831e+00	0.000000e+00
1.459255e+00	0.000000e+00
1.469678e+00	0.000000e+00
1.480101e+00	0.000000e+00
1.490524e+00	0.000000e+00
1.500948e+00	0.000000e+00
1.511371e+00	0.000000e+00
1.521794e+00	0.000000e+00
1.532217e+00	0.000000e+00
1.542641e+00	0.000000e+00
1.553064e+00	0.000000e+00
1.563487e+00	0.000000e+00
1.573910e+00	0.000000e+00
1.584334e+00	0.000000e+00
1.594757e+00	0.000000e+00
1.605180e+00	0.000000e+00
1.615603e+00	0.000000e+00
1.626027e+00	0.000000e+00
1.636450e+00	0.000000e+00
1.646873e+00	0.000000e+00
1.657296e+00	0.000000e+00
1.667720e+00	0.000000e+00
1.678143e+00	0.000000e+00
1.688566e+00	0.000000e+00
1.698989e+00	0.000000e+00
1.709413e+00	0.000000e+00
1.719836e+00	0.000000e+00
1.730259e+00	0.000000e+00
1.740682e+00	0.000000e+00
1.751105e+00	0.000000e+00
1.761529e+00	0.000000e+00
1.771952e+00	0.000000e+00
1.782375e+00	0.000000e+00
1.792798e+00	0.000000e+00
1.803222e+00	0.000000e+00
1.813645e+00	0.000000e+00
1.824068e+00	0.000000e+00
1.834491e+00	0.000000e+00
1.844915e+00	0.000000e+00
1.855338e+00	0.000000e+00
1.865761e+00	0.000000e+00
1.876184e+00	0.000000e+00
1.886608e+00	0.000000e+00
1.897031e+00	0.000000e+00
1.907454e+00	0.000000e+00
1.917877e+00	0.000000e+00
1.928301e+00	0.000000e+00
1.938724e+00	0.000000e+00
1.949147e+00	0.000000e+00
1.959570e+00	0.000000e+00
1.969994e+00	0.000000e+00
1.980417e+00	0.000000e+00
1.990840e+00	0.000000e+00
2.001263e+00	0.000000e+00
2.011687e+00	0.000000e+00
2.022110e+00	0.000000e+00
2.032533e+00	0.000000e+00
2.042956e+00	0.000000e+00
2.053380e+00	0.000000e+00
2.063803e+00	0.000000e+00
2.074226e+00	0.000000e+00
2.084649e+00	0.000000e+00
2.095073e+00	0.000000e+00
2.105496e+00	0.000000e+00
2.115919e+00	0.000000e+00
2.126342e+00	0.000000e+00
2.136766e+00	0.000000e+00
2.147189e+00	0.000000e+00
2.157612e+00	0.000000e+00
2.168035e+00	0.000000e+00
2.178459e+00	0.000000e+00
2.188882e+00	0.000000e+00
2.199305e+00	0.000000e+00
2.209728e+00	0.000000e+00
2.220152e+00	0.000000e+00
2.230575e+00	0.000000e+00
2.240998e+00	0.000000e+00
2.251421e+00	0.000000e+00
2.261845e+00	0.000000e+00
2.272268e+00	0.000000e+00
2.282691e+00	0.000000e+00
2.293114e+00	0.000000e+00
2.303538e+00	0.000000e+00
2.313961e+00	0.000000e+00
2.324384e+00	0.000000e+00
2.334807e+00	0.000000e+00
2.345231e+00	0.000000e+00
2.355654e+00	0.000000e+00
2.366077e+00	0.000000e+00
2.376500e+00	0.000000e+00
2.386924e+00	0.000000e+00
2.397347e+00	0.000000e+00
2.407770e+00	0.000000e+00
2.418193e+00	0.000000e+00
2.428617e+00	0.000000e+00
2.439040e+00	0.000000e+00
2.449463e+00	0.000000e+00
2.459886e+00	0.000000e+00
2.470310e+00	0.000000e+00
2.480733e+00	0.000000e+00
2.491156e+00	0.000000e+00
2.501579e+00	0.000000e+00
2.512003e+00	0.000000e+00
2.522426e+00	0.000000e+00
2.532849e+00	0.000000e+00
2.543272e+00	0.000000e+00
2.553696e+00	0.000000e+00
2.564119e+00	0.000000e+00
2.574542e+00	2.444834e-10
2.584965e+00	2.521408e-07
2.595389e+00	4.858308e-05
2.605812e+00	1.748941e-03
2.616235e+00	1.176287e-02
2.626658e+00	1.478086e-02
2.637081e+00	3.470038e-03
2.647505e+00	1.522008e-04
2.657928e+00	1.247233e-06
2.668351e+00	1.909531e-09
2.678774e+00	5.462028e-13
2.689198e+00	0.000000e+00
2.699621e+00	0.000000e+00
2.710044e+00	0.000000e+00
2.720467e+00	0.000000e+00
2.730891e+00	0.000000e+00
2.741314e+00	0.000000e+00
2.751737e+00	0.000000e+00
2.762160e+00	0.000000e+00
2.772584e+00	0.000000e+00
2.783007e+00	0.000000e+00
2.793430e+00	0.000000e+00
2.803853e+00	0.000000e+00
2.814277e+00	0.000000e+00
2.824700e+00	0.000000e+00
2.835123e+00	0.000000e+00
2.845546e+00	0.000000e+00
2.855970e+00	4.521245e-43
2.866393e+00	1.579456e-39
2.876816e+00	1.030874e-36
2.887239e+00	1.257047e-34
2.897663e+00	2.863819e-33
2.908086e+00	1.218955e-32
2.918509e+00	9.693446e-33
2.928932e+00	1.440180e-33
2.939356e+00	3.997638e-35
2.949779e+00	2.073186e-37
2.960202e+00	2.008729e-40
2.970625e+00	0.000000e+00
2.981049e+00	0.000000e+00
2.991472e+00	0.000000e+00
3.001895e+00	0.000000e+00
3.012318e+00	0.000000e+00
3.022742e+00	0.000000e+00
3.033165e+00	0.000000e+00
3.043588e+00	0.000000e+00
3.054011e+00	0.000000e+00
3.064435e+00	4.142188e-42
3.074858e+00	9.157638e-39
3.085281e+00	3.782555e-36
3.095704e+00	2.919008e-34
3.106128e+00	4.208559e-33
3.116551e+00	1.133652e-32
3.126974e+00	5.705244e-33
3.137397e+00	1.205739e-11
3.147821e+00	4.906085e-08
3.158244e+00	3.729622e-05
3.168667e+00	5.297156e-03
3.179090e+00	1.405623e-01
3.189514e+00	6.968561e-01
3.199937e+00	6.454543e-01
3.210360e+00	1.116956e-01
3.220783e+00	3.611227e-03
3.231207e+00	2.181331e-05
3.241630e+00	2.461709e-08
3.252053e+00	0.000000e+00
3.262476e+00	0.000000e+00
3.272900e+00	0.000000e+00
3.283323e+00	0.000000e+00
3.293746e+00	0.000000e+00
3.304169e+00	0.000000e+00
3.314593e+00	0.000000e+00
3.325016e+00	1.455192e-11
3.335439e+00	5.921092e-08
3.345862e+00	4.501234e-05
3.356286e+00	6.393071e-03
3.366709e+00	1.696429e-01
3.377132e+00	8.410268e-01
3.387555e+00	7.789906e-01
3.397979e+00	1.348040e-01
3.408402e+00	4.358344e-03
3.418825e+00	2.632621e-05
3.429248e+00	2.971005e-08
3.439672e+00	0.000000e+00
3.450095e+00	0.000000e+00
3.460518e+00	0.000000e+00
3.470941e+00	0.000000e+00
3.481364e+00	0.000000e+00
3.491788e+00	0.000000e+00
3.502211e+00	0.000000e+00
3.512634e+00	0.000000e+00
3.523057e+00	0.000000e+00
3.533481e+00	0.000000e+00
3.543904e+00	0.000000e+00
3.554327e+00	0.000000e+00
3.564750e+00	0.000000e+00
3.575174e+00	0.000000e+00
3.585597e+00	0.000000e+00
3.596020e+00	0.000000e+00
3.606443e+00	0.000000e+00
3.616867e+00	0.000000e+00
3.627290e+00	0.000000e+00
3.637713e+00	0.000000e+00
3.648136e+00	0.000000e+00
3.658560e+00	0.000000e+00
3.668983e+00	0.000000e+00
3.679406e+00	0.000000e+00
3.689829e+00	0.000000e+00
3.700253e+00	0.000000e+00
3.710676e+00	0.000000e+00
3.721099e+00	0.000000e+00
3.731522e+00	0.000000e+00
3.741946e+00	0.000000e+00
3.752369e+00	0.000000e+00
3.762792e+00	0.000000e+00
3.773215e+00	0.000000e+00
3.783639e+00	0.000000e+00
3.794062e+00	0.000000e+00
3.804485e+00	0.000000e+00
3.814908e+00	0.000000e+00
3.825332e+00	0.000000e+00
3.835755e+00	0.000000e+00
3.846178e+00	0.000000e+00
3.856601e+00	0.000000e+00
3.867025e+00	2.560972e-41
3.877448e+00	4.861162e-38
3.887871e+00	1.724454e-35
3.898294e+00	1.146816e-33
3.908718e+00	1.480369e-32
3.919141e+00	5.036675e-32
3.929564e+00	1.017322e-31
3.939987e+00	8.228346e-32
3.950411e+00	1.405897e-32
3.960834e+00	4.540324e-34
3.971257e+00	2.742278e-36
3.981680e+00	3.094728e-39
3.992104e+00	0.000000e+00
4.002527e+00	0.000000e+00
4.012950e+00	0.000000e+00
4.023373e+00	3.252892e-40
4.033797e+00	5.301019e-37
4.044220e+00	1.613977e-34
4.054643e+00	9.180857e-33
4.065066e+00	9.757025e-32
4.075490e+00	1.937313e-31
4.085913e+00	7.186712e-32
4.096336e+00	4.980912e-33
4.106759e+00	6.449643e-35
4.117183e+00	1.560309e-37
4.127606e+00	7.052348e-41
4.138029e+00	0.000000e+00
4.148452e+00	0.000000e+00
4.158876e+00	0.000000e+00
4.169299e+00	0.000000e+00
4.179722e+00	0.000000e+00
4.190145e+00	0.000000e+00
4.200569e+00	0.000000e+00
4.210992e+00	2.007481e-75
4.221415e+00	7.012955e-72
4.231838e+00	4.577189e-69
4.242262e+00	5.581421e-67
4.252685e+00	1.271566e-65
4.263108e+00	5.412291e-65
4.273531e+00	4.303993e-65
4.283955e+00	6.394553e-66
4.294378e+00	1.774994e-67
4.304801e+00	9.205169e-70
4.315224e+00	8.918972e-73
4.325648e+00	0.000000e+00
4.336071e+00	0.000000e+00
4.346494e+00	0.000000e+00
4.356917e+00	0.000000e+00
4.367340e+00	0.000000e+00
4.377764e+00	0.000000e+00
4.388187e+00	0.000000e+00
4.398610e+00	0.000000e+00
4.409033e+00	6.780696e-42
4.419457e+00	2.033724e-38
4.429880e+00	1.139614e-35
4.440303e+00	1.193086e-33
4.450726e+00	2.333640e-32
4.461150e+00	8.527939e-32
4.471573e+00	5.822407e-32
4.481996e+00	7.426926e-33
4.492419e+00	1.769962e-34
4.502843e+00	7.880736e-37
4.513266e+00	6.555681e-40
4.523689e+00	0.000000e+00
4.534112e+00	0.000000e+00
4.544536e+00	0.000000e+00
4.554959e+00	0.000000e+00
4.565382e+00	0.000000e+00
4.575805e+00	0.000000e+00
4.586229e+00	0.000000e+00
4.596652e+00	0.000000e+00
4.607075e+00	0.000000e+00
4.617498e+00	0.000000e+00
4.627922e+00	0.000000e+00
4.638345e+00	0.000000e+00
4.648768e+00	0.000000e+00
4.659191e+00	0.000000e+00
4.669615e+00	0.000000e+00
4.680038e+00	0.000000e+00
4.690461e+00	0.000000e+00
4.700884e+00	0.000000e+00
4.711308e+00	0.000000e+00
4.721731e+00	0.000000e+00
4.732154e+00	0.000000e+00
4.742577e+00	0.000000e+00
4.753001e+00	0.000000e+00
4.763424e+00	0.000000e+00
4.773847e+00	0.000000e+00
4.784270e+00	0.000000e+00
4.794694e+00	0.000000e+00
4.805117e+00	0.000000e+00
4.815540e+00	0.000000e+00
4.825963e+00	0.000000e+00
4.836387e+00	0.000000e+00
4.846810e+00	1.456129e-09
4.857233e+00	1.749145e-06
4.867656e+00	3.925542e-04
4.878080e+00	1.645969e-02
4.888503e+00	1.289412e-01
4.898926e+00	1.887166e-01
4.909349e+00	5.160321e-02
4.919773e+00	2.636279e-03
4.930196e+00	2.516253e-05
4.940619e+00	4.487094e-08
4.951042e+00	1.494942e-11
4.961466e+00	4.248349e-09
4.971889e+00	3.761939e-06
4.982312e+00	6.225989e-04
4.992735e+00	1.930275e-02
5.003159e+00	1.139787e-01
5.013582e+00	1.426825e-01
5.024005e+00	5.761855e-02
5.034428e+00	1.006121e-02
5.044852e+00	4.739407e-04
5.055275e+00	4.470968e-06
5.065698e+00	7.959899e-09
5.076121e+00	2.651270e-12
5.086545e+00	0.000000e+00
5.096968e+00	0.000000e+00
5.107391e+00	0.000000e+00
5.117814e+00	0.000000e+00
5.128238e+00	0.000000e+00
5.138661e+00	0.000000e+00
5.149084e+00	0.000000e+00
5.159507e+00	0.000000e+00
5.169931e+00	0.000000e+00
5.180354e+00	0.000000e+00
5.190777e+00	7.834748e-12
5.201200e+00	3.187915e-08
5.211623e+00	2.423463e-05
5.222047e+00	3.442028e-03
5.232470e+00	9.133568e-02
5.242893e+00	4.528087e-01
5.253316e+00	4.194084e-01
5.263740e+00	7.257845e-02
5.274163e+00	2.346532e-03
5.284586e+00	1.417403e-05
5.295009e+00	1.599589e-08
5.305433e+00	0.000000e+00
5.315856e+00	0.000000e+00
5.326279e+00	0.000000e+00
5.336702e+00	0.000000e+00
5.347126e+00	0.000000e+00
5.357549e+00	0.000000e+00
5.367972e+00	0.000000e+00
5.378395e+00	0.000000e+00
5.388819e+00	0.000000e+00
5.399242e+00	0.000000e+00
5.409665e+00	0.000000e+00
5.420088e+00	0.000000e+00
5.430512e+00	0.000000e+00
5.440935e+00	0.000000e+00
5.451358e+00	0.000000e+00
5.461781e+00	0.000000e+00
5.472205e+00	0.000000e+00
5.482628e+00	0.000000e+00
5.493051e+00	0.000000e+00
5.503474e+00	0.000000e+00
5.513898e+00	0.000000e+00
5.524321e+00	0.000000e+00
5.534744e+00	0.000000e+00
5.545167e+00	0.000000e+00
5.555591e+00	0.000000e+00
5.566014e+00	0.000000e+00
5.576437e+00	0.000000e+00
5.586860e+00	0.000000e+00
5.597284e+00	0.000000e+00
5.607707e+00	0.000000e+00
5.618130e+00	0.000000e+00
5.628553e+00	0.000000e+00
5.638977e+00	0.000000e+00
5.649400e+00	0.000000e+00
5.659823e+00	0.000000e+00
5.670246e+00	0.000000e+00
5.680670e+00	0.000000e+00
5.691093e+00	0.000000e+00
5.701516e+00	0.000000e+00
5.711939e+00	0.000000e+00
5.722363e+00	0.000000e+00
5.732786e+00	0.000000e+00
5.743209e+00	0.000000e+00
5.753632e+00	5.138319e-41
5.764056e+00	9.753101e-38
5.774479e+00	3.764683e-10
5.784902e+00	7.145787e-07
5.795325e+00	2.534078e-04
5.805749e+00	1.678951e-02
5.816172e+00	2.078280e-01
5.826595e+00	4.806383e-01
5.837018e+00	2.076734e-01
5.847442e+00	1.676453e-02
5.857865e+00	2.528426e-04
5.868288e+00	7.124547e-07
5.878711e+00	3.750700e-10
5.889135e+00	0.000000e+00
5.899558e+00	0.000000e+00
5.909981e+00	0.000000e+00
5.920404e+00	9.076111e-42
5.930828e+00	1.722747e-38
5.941251e+00	6.109299e-36
5.951674e+00	4.047710e-34
5.962097e+00	5.010468e-33
5.972521e+00	1.159589e-32
5.982944e+00	5.416277e-33
5.993367e+00	4.141215e-33
6.003790e+00	6.376673e-33
6.014214e+00	2.028995e-33
6.024637e+00	1.207324e-34
6.035060e+00	1.342205e-36
6.045483e+00	2.787801e-39
6.055907e+00	2.000286e-40
6.066330e+00	2.389807e-37
6.076753e+00	5.363356e-35
6.087176e+00	2.248841e-33
6.097599e+00	1.761688e-32
6.108023e+00	2.578382e-32
6.118446e+00	7.050400e-33
6.128869e+00	3.601873e-34
6.139292e+00	3.437884e-36
6.149716e+00	6.130590e-39
6.160139e+00	2.042497e-42
6.170562e+00	0.000000e+00
6.180985e+00	5.525970e-12
6.191409e+00	2.248486e-08
6.201832e+00	1.709306e-05
6.212255e+00	2.427716e-03
6.222678e+00	6.442048e-02
6.233102e+00	3.193730e-01
6.243525e+00	2.958153e-01
6.253948e+00	5.119071e-02
6.264371e+00	1.655045e-03
6.274795e+00	9.997162e-06
6.285218e+00	1.128215e-08
6.295641e+00	0.000000e+00
6.306064e+00	0.000000e+00
6.316488e+00	0.000000e+00
6.326911e+00	4.467391e-40
6.337334e+00	1.024834e-12
6.347757e+00	2.265724e-09
6.358181e+00	9.358557e-07
6.368604e+00	7.222023e-05
6.379027e+00	1.041255e-03
6.389450e+00	2.804809e-03
6.399874e+00	1.411555e-03
6.410297e+00	1.327212e-04
6.420720e+00	2.331477e-06
6.431143e+00	7.651914e-09
6.441567e+00	4.691991e-12
6.451990e+00	0.000000e+00
6.462413e+00	0.000000e+00
6.472836e+00	0.000000e+00
6.483260e+00	0.000000e+00
6.493683e+00	0.000000e+00
6.504106e+00	3.494478e-43
6.514529e+00	1.421883e-39
6.524953e+00	1.080921e-36
6.535376e+00	1.535224e-34
6.545799e+00	4.073782e-33
6.556222e+00	2.019631e-32
6.566646e+00	1.870658e-32
6.577069e+00	3.237959e-33
6.587492e+00	1.658581e-34
6.597915e+00	8.829622e-34
6.608339e+00	2.376717e-33
6.618762e+00	1.196112e-33
6.629185e+00	1.124642e-34
6.639608e+00	1.975628e-36
6.650032e+00	6.484017e-39
6.660455e+00	3.975861e-42
6.670878e+00	0.000000e+00
6.681301e+00	3.680097e-12
6.691725e+00	1.497411e-08
6.702148e+00	1.138337e-05
6.712571e+00	1.616772e-03
6.722994e+00	4.290177e-02
6.733418e+00	2.127086e-01
6.743841e+00	1.981850e-01
6.754264e+00	4.895073e-02
6.764687e+00	3.627128e-02
6.775111e+00	1.575122e-02
6.785534e+00	1.340994e-03
6.795957e+00	2.189296e-05
6.806380e+00	6.911718e-08
6.816804e+00	4.256535e-11
6.827227e+00	0.000000e+00
6.837650e+00	5.943883e-41
6.848073e+00	5.262983e-38
6.858497e+00	8.706466e-36
6.868920e+00	2.690915e-34
6.879343e+00	1.553840e-33
6.889766e+00	1.676334e-33
6.900190e+00	3.378805e-34
6.910613e+00	1.272371e-35
6.921036e+00	8.951848e-38
6.931459e+00	1.176684e-40
6.941883e+00	2.889714e-44
6.952306e+00	2.256409e-12
6.962729e+00	9.181199e-09
6.973152e+00	6.979578e-06
6.983575e+00	9.913046e-04
6.993999e+00	2.630469e-02
7.004422e+00	1.304090e-01
7.014845e+00	1.207897e-01
7.025268e+00	2.090261e-02
7.035692e+00	6.758015e-04
7.046115e+00	4.082122e-06
7.056538e+00	4.606818e-09
7.066961e+00	3.441307e-36
7.077385e+00	7.245854e-36
7.087808e+00	7.579437e-34
7.098231e+00	1.482515e-32
7.108654e+00	5.417630e-32
7.119078e+00	3.698859e-32
7.129501e+00	4.448000e-10
7.139924e+00	5.343065e-07
7.150347e+00	1.199125e-04
7.160771e+00	5.027897e-03
7.171194e+00	3.938734e-02
7.181617e+00	5.764677e-02
7.192040e+00	1.576309e-02
7.202464e+00	8.052971e-04
7.212887e+00	7.686521e-06
7.223310e+00	3.771924e-07
7.233733e+00	1.289013e-04
7.244157e+00	8.540342e-03
7.254580e+00	1.057162e-01
7.265003e+00	2.444870e-01
7.275426e+00	1.056375e-01
7.285850e+00	8.527639e-03
7.296273e+00	1.286138e-04
7.306696e+00	3.624053e-07
7.317119e+00	1.907874e-10
7.327543e+00	2.990321e-39
7.337966e+00	1.112355e-36
7.348389e+00	8.726862e-35
7.358812e+00	1.742958e-33
7.369236e+00	1.007768e-32
7.379659e+00	1.466236e-32
7.390082e+00	4.466644e-33
7.400505e+00	2.627188e-34
7.410929e+00	2.912058e-36
7.421352e+00	6.043890e-39
7.431775e+00	2.344751e-42
7.442198e+00	0.000000e+00
7.452622e+00	0.000000e+00
7.463045e+00	0.000000e+00
7.473468e+00	0.000000e+00
7.483891e+00	0.000000e+00
7.494315e+00	0.000000e+00
7.504738e+00	0.000000e+00
7.515161e+00	0.000000e+00
7.525584e+00	0.000000e+00
7.536008e+00	0.000000e+00
7.546431e+00	0.000000e+00
7.556854e+00	0.000000e+00
7.567277e+00	0.000000e+00
7.577701e+00	0.000000e+00
7.588124e+00	0.000000e+00
7.598547e+00	0.000000e+00
7.608970e+00	0.000000e+00
7.619394e+00	0.000000e+00
7.629817e+00	0.000000e+00
7.640240e+00	3.340324e-12
7.650663e+00	8.601501e-09
7.661087e+00	4.138168e-06
7.671510e+00	3.719547e-04
7.681933e+00	6.246262e-03
7.692356e+00	1.959740e-02
7.702780e+00	1.148748e-02
7.713203e+00	1.258055e-03
7.723626e+00	2.574081e-05
7.734049e+00	9.839957e-08
7.744473e+00	7.027685e-11
7.754896e+00	0.000000e+00
7.765319e+00	0.000000e+00
7.775742e+00	1.139563e-40
7.786166e+00	2.519371e-37
7.796589e+00	7.679418e-09
7.807012e+00	6.799705e-06
7.817435e+00	1.124864e-03
7.827858e+00	3.476627e-02
7.838282e+00	2.007544e-01
7.848705e+00	2.166246e-01
7.859128e+00	4.483201e-02
7.869551e+00	7.485439e-03
7.879975e+00	5.422230e-03
7.890398e+00	9.364000e-04
7.900821e+00	5.979233e-05
7.911244e+00	2.278281e-03
7.921668e+00	3.284510e-02
7.932091e+00	8.847424e-02
7.942514e+00	4.452576e-02
7.952937e+00	4.186527e-03
7.963361e+00	7.354357e-05
7.973784e+00	2.413702e-07
7.984207e+00	1.480031e-10
7.994630e+00	0.000000e+00
8.005054e+00	0.000000e+00
8.015477e+00	0.000000e+00
8.025900e+00	0.000000e+00
8.036323e+00	0.000000e+00
8.046747e+00	0.000000e+00
8.057170e+00	0.000000e+00
8.067593e+00	0.000000e+00
8.078016e+00	0.000000e+00
8.088440e+00	0.000000e+00
8.098863e+00	7.328760e-12
8.109286e+00	2.560237e-08
8.119709e+00	1.671006e-05
8.130133e+00	2.037623e-03
8.140556e+00	4.642137e-02
8.150979e+00	1.975879e-01
8.161402e+00	1.571269e-01
8.171826e+00	2.334475e-02
8.182249e+00	6.480014e-04
8.192672e+00	3.360554e-06
8.203095e+00	3.256071e-09
8.213519e+00	0.000000e+00
8.223942e+00	0.000000e+00
8.234365e+00	0.000000e+00
8.244788e+00	0.000000e+00
8.255212e+00	0.000000e+00
8.265635e+00	0.000000e+00
8.276058e+00	0.000000e+00
8.286481e+00	0.000000e+00
8.296905e+00	0.000000e+00
8.307328e+00	0.000000e+00
8.317751e+00	0.000000e+00
8.328174e+00	0.000000e+00
8.338598e+00	0.000000e+00
8.349021e+00	1.064842e-39
8.359444e+00	1.098194e-36
8.369867e+00	2.116025e-34
8.380291e+00	7.617473e-33
8.390714e+00	5.123293e-32
8.401137e+00	6.437772e-32
8.411560e+00	1.511776e-32
8.421984e+00	9.336740e-34
8.432407e+00	3.357380e-33
8.442830e+00	7.813832e-33
8.453253e+00	5.970070e-33
8.463677e+00	2.080182e-32
8.474100e+00	3.005363e-32
8.484523e+00	1.710617e-11
8.494946e+00	5.130626e-08
8.505370e+00	2.874989e-05
8.515793e+00	3.009887e-03
8.526216e+00	5.887247e-02
8.536639e+00	2.151407e-01
8.547063e+00	1.468862e-01
8.557486e+00	1.873646e-02
8.567909e+00	4.465214e-04
8.578332e+00	1.988132e-06
8.588756e+00	1.653851e-09
8.599179e+00	5.521384e-38
8.609602e+00	1.681073e-35
8.620025e+00	9.563077e-34
8.630449e+00	1.017994e-32
8.640872e+00	2.116349e-32
8.651295e+00	1.795379e-32
8.661718e+00	2.130425e-32
8.672142e+00	7.717351e-33
8.682565e+00	5.344190e-34
8.692988e+00	6.919844e-36
8.703411e+00	2.625549e-38
8.713834e+00	2.896968e-36
8.724258e+00	1.647891e-34
8.734681e+00	1.751323e-33
8.745104e+00	3.484209e-33
8.755527e+00	1.908951e-33
8.765951e+00	1.048420e-32
8.776374e+00	3.261441e-32
8.786797e+00	1.056799e-12
8.797220e+00	3.691833e-09
8.807644e+00	2.409571e-06
8.818067e+00	2.938230e-04
8.828490e+00	6.693910e-03
8.838913e+00	2.849195e-02
8.849337e+00	2.265753e-02
8.859760e+00	3.366287e-03
8.870183e+00	9.344108e-05
8.880606e+00	4.845884e-07
8.891030e+00	1.188612e-09
8.901453e+00	3.459531e-07
8.911876e+00	3.109695e-05
8.922299e+00	5.233678e-04
8.932723e+00	1.833039e-03
8.943146e+00	6.977532e-03
8.953569e+00	3.485068e-02
8.963992e+00	3.748677e-02
8.974416e+00	7.555376e-03
8.984839e+00	2.845158e-04
8.995262e+00	2.001729e-06
9.005685e+00	2.631190e-09
9.016109e+00	6.461709e-13
9.026532e+00	2.074158e-35
9.036955e+00	1.374231e-33
9.047378e+00	1.701085e-32
9.057802e+00	3.934054e-32
9.068225e+00	1.699820e-32
9.078648e+00	1.372187e-33
9.089071e+00	2.069734e-35
9.099495e+00	7.729575e-37
9.109918e+00	4.734860e-35
9.120341e+00	5.861018e-34
9.130764e+00	1.355462e-33
9.141188e+00	5.856658e-34
9.151611e+00	4.731689e-35
9.162034e+00	8.177609e-36
9.172457e+00	2.687185e-34
9.182881e+00	1.807309e-33
9.193304e+00	2.271009e-33
9.203727e+00	5.331549e-34
9.214150e+00	2.338493e-35
9.224574e+00	1.916315e-37
9.234997e+00	3.198675e-40
9.245420e+00	4.314791e-38
9.255843e+00	1.313702e-35
9.266267e+00	1.420476e-10
9.276690e+00	2.696222e-07
9.287113e+00	9.561487e-05
9.297536e+00	6.334954e-03
9.307960e+00	7.841689e-02
9.318383e+00	1.813527e-01
9.328806e+00	7.835855e-02
9.339229e+00	6.325532e-03
9.349653e+00	9.540164e-05
9.360076e+00	2.688207e-07
9.370499e+00	1.415200e-10
9.380922e+00	1.107975e-32
9.391346e+00	7.456625e-33
9.401769e+00	1.254866e-11
9.412192e+00	2.774285e-08
9.422615e+00	1.145916e-05
9.433039e+00	8.843067e-04
9.443462e+00	1.274973e-02
9.453885e+00	3.434372e-02
9.464308e+00	1.728390e-02
9.474732e+00	1.625173e-03
9.485155e+00	4.855376e-05
9.495578e+00	1.325575e-03
9.506001e+00	1.640741e-02
9.516425e+00	3.794497e-02
9.526848e+00	1.639520e-02
9.537271e+00	1.323510e-03
9.547694e+00	1.996607e-05
9.558117e+00	2.801390e-06
9.568541e+00	2.873949e-04
9.578964e+00	5.621357e-03
9.589387e+00	2.054241e-02
9.599810e+00	1.402524e-02
9.610234e+00	1.795381e-03
9.620657e+00	5.488583e-04
9.631080e+00	8.195403e-03
9.641503e+00	3.160407e-02
9.651927e+00	3.482507e-02
9.662350e+00	1.029301e-02
9.672773e+00	6.673864e-04
9.683196e+00	2.041997e-05
9.693620e+00	2.003833e-04
9.704043e+00	6.286305e-04
9.714466e+00	3.684868e-04
9.724889e+00	4.035492e-05
9.735313e+00	8.256942e-07
9.745736e+00	3.156582e-09
9.756159e+00	6.848953e-10
9.766582e+00	4.455436e-07
9.777006e+00	5.432955e-05
9.787429e+00	1.237742e-03
9.797852e+00	5.268324e-03
9.808275e+00	4.189507e-03
9.818699e+00	6.224457e-04
9.829122e+00	1.727779e-05
9.839545e+00	8.960311e-08
9.849968e+00	8.681727e-11
9.860392e+00	1.447897e-36
9.870815e+00	1.515834e-34
9.881238e+00	2.964926e-33
9.891661e+00	1.083488e-32
9.902085e+00	7.397459e-33
9.912508e+00	9.436026e-34
9.922931e+00	2.248764e-35
9.933354e+00	1.001260e-37
9.943778e+00	8.329096e-41
9.954201e+00	0.000000e+00
9.964624e+00	0.000000e+00
9.975047e+00	6.708180e-11
9.985471e+00	1.483059e-07
9.995894e+00	6.125764e-05
1.000632e+01	4.727269e-03
1.001674e+01	6.815707e-02
1.002716e+01	1.836413e-01
1.003759e+01	9.350985e-02
1.004801e+01	1.343208e-02
1.005843e+01	3.925667e-03
1.006886e+01	5.610736e-04
1.007928e+01	1.556063e-05
1.008970e+01	8.069630e-08
1.010013e+01	8.592829e-11
1.011055e+01	1.714051e-08
1.012097e+01	7.100939e-06
1.013140e+01	5.527091e-04
1.014182e+01	8.167065e-03
1.015224e+01	2.355237e-02
1.016267e+01	1.412582e-02
1.017309e+01	1.949660e-03
1.018351e+01	6.599905e-05
1.019394e+01	5.196529e-07
1.020436e+01	8.590414e-10
1.021478e+01	2.743950e-13
1.022521e+01	2.779474e-35
1.023563e+01	3.599352e-37
1.024605e+01	5.577198e-38
1.025648e+01	1.946939e-35
1.026690e+01	1.289942e-33
1.027732e+01	1.596748e-32
1.028774e+01	3.692758e-32
1.029817e+01	1.595561e-32
1.030859e+01	1.288024e-33
1.031901e+01	1.942597e-35
1.032944e+01	5.473809e-38
1.033986e+01	2.881673e-41
1.035028e+01	0.000000e+00
1.036071e+01	0.000000e+00
1.037113e+01	0.000000e+00
1.038155e+01	0.000000e+00
1.039198e+01	0.000000e+00
1.040240e+01	0.000000e+00
1.041282e+01	4.269560e-42
1.042325e+01	1.280563e-38
1.043367e+01	7.175738e-36
1.044409e+01	7.512432e-34
1.045452e+01	2.982610e-11
1.046494e+01	4.860559e-08
1.047536e+01	1.479872e-05
1.048579e+01	8.418022e-04
1.049621e+01	8.946316e-03
1.050663e+01	1.776342e-02
1.051706e+01	6.589570e-03
1.052748e+01	4.567050e-04
1.053790e+01	5.913744e-06
1.054833e+01	1.430663e-08
1.055875e+01	6.466371e-12
1.056917e+01	7.477429e-33
1.057960e+01	4.383073e-33
1.059002e+01	4.800134e-34
1.060044e+01	9.821461e-36
1.061087e+01	3.754456e-38
1.062129e+01	1.856897e-11
1.063171e+01	2.598038e-08
1.064214e+01	6.791275e-06
1.065256e+01	3.316694e-04
1.066298e+01	3.026269e-03
1.067340e+01	5.158909e-03
1.068383e+01	1.643071e-03
1.069425e+01	9.776942e-05
1.070467e+01	1.086921e-06
1.071510e+01	2.257568e-09
1.072552e+01	8.760562e-13
1.073594e+01	5.369061e-33
1.074637e+01	6.950190e-33
1.075679e+01	3.663757e-33
1.076721e+01	9.445339e-33
1.077764e+01	4.499761e-11
1.078806e+01	7.332958e-08
1.079848e+01	2.232631e-05
1.080891e+01	1.269998e-03
1.081933e+01	1.349700e-02
1.082975e+01	2.679906e-02
1.084018e+01	9.941457e-03
1.085060e+01	6.890150e-04
1.086102e+01	8.921862e-06
1.087145e+01	2.158393e-08
1.088187e+01	9.755591e-12
1.089229e+01	3.019537e-10
1.090272e+01	2.673635e-07
1.091314e+01	4.422950e-05
1.092356e+01	1.367005e-03
1.093399e+01	7.893623e-03
1.094441e+01	8.515904e-03
1.095483e+01	1.716458e-03
1.096526e+01	6.463742e-05
1.097568e+01	4.547606e-07
1.098610e+01	5.977642e-10
1.099653e+01	1.467997e-13
1.100695e+01	7.706045e-36
1.101737e+01	2.773585e-34
1.102780e+01	1.865539e-33
1.103822e+01	2.364715e-33
1.104864e+01	1.294421e-33
1.105907e+01	5.734405e-12
1.106949e+01	1.476638e-08
1.107991e+01	7.104111e-06
1.109033e+01	6.385808e-04
1.110076e+01	1.073170e-02
1.111118e+01	3.400440e-02
1.112160e+01	2.254979e-02
1.113203e+01	6.300197e-03
1.114245e+01	1.176371e-03
1.115287e+01	5.800924e-05
1.116330e+01	5.521898e-07
1.117372e+01	9.844745e-10
1.118414e+01	3.279923e-13
1.119457e+01	0.000000e+00
1.120499e+01	0.000000e+00
1.121541e+01	0.000000e+00
1.122584e+01	0.000000e+00
1.123626e+01	0.000000e+00
1.124668e+01	0.000000e+00
1.125711e+01	0.000000e+00
1.126753e+01	0.000000e+00
1.127795e+01	1.833384e-12
1.128838e+01	2.565616e-09
1.129880e+01	6.721894e-07
1.130922e+01	3.383125e-05
1.131965e+01	4.310133e-04
1.133007e+01	3.521573e-03
1.134049e+01	1.298341e-02
1.135092e+01	1.020539e-02
1.136134e+01	1.514914e-03
1.137176e+01	4.204809e-05
1.138219e+01	2.180615e-07
1.139261e+01	7.565426e-10
1.140303e+01	5.629653e-07
1.141346e+01	1.089074e-04
1.142388e+01	3.992342e-03
1.143430e+01	2.907010e-02
1.144473e+01	4.934054e-02
1.145515e+01	2.540593e-02
1.146557e+01	3.982940e-03
1.147599e+01	2.692219e-03
1.148642e+01	1.475652e-02
1.149684e+01	1.591880e-02
1.150726e+01	3.208580e-03
1.151769e+01	1.208269e-04
1.152811e+01	8.500852e-07
1.153853e+01	1.117402e-09
1.154896e+01	2.744130e-13
1.155938e+01	0.000000e+00
1.156980e+01	8.289724e-14
1.158023e+01	3.373041e-10
1.159065e+01	2.564197e-07
1.160107e+01	3.641911e-05
1.161150e+01	9.663968e-04
1.162192e+01	4.791041e-03
1.163234e+01	4.438950e-03
1.164277e+01	9.538961e-04
1.165319e+01	4.959468e-03
1.166361e+01	2.446428e-02
1.167404e+01	2.265959e-02
1.168446e+01	3.921546e-03
1.169488e+01	1.649437e-04
1.170531e+01	8.702792e-04
1.171573e+01	3.700996e-03
1.172615e+01	2.943127e-03
1.173658e+01	4.372678e-04
1.174700e+01	1.213764e-05
1.175742e+01	6.294615e-08
1.176785e+01	6.098910e-11
1.177827e+01	2.004040e-32
1.178869e+01	1.147769e-32
1.179912e+01	3.091391e-32
1.180954e+01	6.071181e-32
1.181996e+01	2.551617e-32
1.183039e+01	4.152705e-33
1.184081e+01	4.080066e-34
1.185123e+01	1.081986e-35
1.186166e+01	5.588362e-38
1.187208e+01	5.412501e-41
1.188250e+01	0.000000e+00
1.189292e+01	0.000000e+00
1.190335e+01	0.000000e+00
1.191377e+01	7.457193e-12
1.192419e+01	6.602937e-09
1.193462e+01	1.092313e-06
1.194504e+01	3.376021e-05
1.195546e+01	1.949447e-04
1.196589e+01	2.103128e-04
1.197631e+01	4.239275e-05
1.198673e+01	3.076474e-06
1.199716e+01	1.805015e-04
1.200758e+01	4.111951e-03
1.201800e+01	1.750210e-02
1.202843e+01	1.391812e-02
1.203885e+01	2.067851e-03
1.204927e+01	5.739921e-05
1.205970e+01	2.976739e-07
1.207012e+01	2.884190e-10
1.208054e+01	1.857506e-34
1.209097e+01	8.025882e-35
1.210139e+01	8.120868e-11
1.211181e+01	1.136214e-07
1.212224e+01	2.970066e-05
1.213266e+01	1.450508e-03
1.214308e+01	1.323503e-02
1.215351e+01	2.257654e-02
1.216393e+01	7.802805e-03
1.217435e+01	6.669570e-03
1.218478e+01	1.514340e-02
1.219520e+01	7.985650e-03
1.220562e+01	1.555614e-03
1.221605e+01	1.340143e-02
1.222647e+01	5.125516e-02
1.223689e+01	3.987502e-02
1.224732e+01	6.185825e-03
1.225774e+01	1.874418e-04
1.226816e+01	1.091031e-06
1.227858e+01	1.206006e-09
1.228901e+01	5.510405e-36
1.229943e+01	2.690322e-34
1.230985e+01	2.454746e-33
1.232028e+01	4.184630e-33
1.233070e+01	1.333554e-33
1.234112e+01	1.497694e-34
1.235155e+01	1.184190e-33
1.236197e+01	3.712586e-33
1.237239e+01	2.176220e-33
1.238282e+01	2.384939e-34
1.239324e+01	4.792461e-35
1.240366e+01	2.102388e-33
1.241409e+01	1.918277e-32
1.242451e+01	3.270104e-32
1.243493e+01	1.041502e-32
1.244536e+01	1.534423e-10
1.245578e+01	1.843194e-07
1.246620e+01	4.136613e-05
1.247663e+01	1.734470e-03
1.248705e+01	1.358742e-02
1.249747e+01	1.988637e-02
1.250790e+01	5.437784e-03
1.251832e+01	2.778028e-04
1.252874e+01	2.651548e-06
1.253917e+01	4.768339e-09
1.254959e+01	5.594231e-08
1.256001e+01	1.463037e-05
1.257044e+01	7.175882e-04
1.258086e+01	6.784959e-03
1.259128e+01	1.498959e-02
1.260171e+01	1.399509e-02
1.261213e+01	5.473361e-03
1.262255e+01	4.971797e-04
1.263298e+01	8.697570e-06
1.264340e+01	2.853184e-08
1.265382e+01	1.397092e-09
1.266425e+01	7.733549e-07
1.267467e+01	8.115045e-05
1.268509e+01	1.609995e-03
1.269551e+01	6.401010e-03
1.270594e+01	6.573049e-03
1.271636e+01	2.590160e-03
1.272678e+01	3.219851e-04
1.273721e+01	8.720117e-06
1.274763e+01	4.851545e-06
1.275805e+01	6.931742e-05
1.276848e+01	1.929299e-04
1.277890e+01	6.553537e-04
1.278932e+01	9.436509e-03
1.279975e+01	2.957912e-02
1.281017e+01	1.733907e-02
1.282059e+01	2.025944e-03
1.283102e+01	4.615159e-03
1.284144e+01	3.077907e-02
1.285186e+01	3.867585e-02
1.286229e+01	9.080084e-03
1.287271e+01	4.518705e-04
1.288313e+01	1.660483e-03
1.289356e+01	9.569437e-03
1.290398e+01	1.032382e-02
1.291440e+01	2.080861e-03
1.292483e+01	7.835989e-05
1.293525e+01	5.513059e-07
1.294567e+01	7.246690e-10
1.295610e+01	1.779651e-13
1.296652e+01	0.000000e+00
1.297694e+01	0.000000e+00
1.298737e+01	0.000000e+00
1.299779e+01	0.000000e+00
1.300821e+01	0.000000e+00
1.301864e+01	0.000000e+00
1.302906e+01	1.784019e-40
1.303948e+01	2.779330e-12
1.304991e+01	6.144603e-09
1.306033e+01	2.538024e-06
1.307075e+01	1.958600e-04
1.308117e+01	2.823864e-03
1.309160e+01	7.606592e-03
1.310202e+01	3.828177e-03
1.311244e+01	3.659742e-04
1.312287e+01	1.783612e-04
1.313329e+01	1.432112e-03
1.314371e+01	2.672285e-03
1.315414e+01	9.774971e-04
1.316456e+01	6.753918e-05
1.317498e+01	8.739585e-07
1.318541e+01	2.115056e-09
1.319583e+01	3.737370e-09
1.320625e+01	2.438669e-06
1.321668e+01	2.973711e-04
1.322710e+01	6.774744e-03
1.323752e+01	2.883601e-02
1.324795e+01	2.293114e-02
1.325837e+01	3.406937e-03
1.326879e+01	9.456945e-05
1.327922e+01	4.904398e-07
1.328964e+01	4.751916e-10
1.330006e+01	3.563857e-33
1.331049e+01	4.507829e-33
1.332091e+01	2.123754e-33
1.333133e+01	7.259201e-33
1.334176e+01	9.064309e-33
1.335218e+01	2.158640e-33
1.336260e+01	1.045272e-33
1.337303e+01	1.713732e-12
1.338345e+01	4.412944e-09
1.339387e+01	2.123060e-06
1.340430e+01	1.908289e-04
1.341472e+01	3.204604e-03
1.342514e+01	1.005432e-02
1.343557e+01	5.893579e-03
1.344599e+01	6.454368e-04
1.345641e+01	1.320622e-05
1.346684e+01	8.737328e-08
1.347726e+01	3.862130e-06
1.348768e+01	7.554139e-05
1.349810e+01	2.760548e-04
1.350853e+01	1.884780e-04
1.351895e+01	2.622771e-05
1.352937e+01	3.222376e-04
1.353980e+01	9.809195e-03
1.355022e+01	6.301440e-02
1.356064e+01	8.485806e-02
1.357107e+01	2.345478e-02
1.358149e+01	1.298484e-03
1.359191e+01	1.412124e-05
1.360234e+01	2.977731e-08
1.361276e+01	1.201339e-11
1.362318e+01	3.651248e-42
1.363361e+01	1.550718e-41
1.364403e+01	5.274949e-12
1.365445e+01	8.596230e-09
1.366488e+01	2.617254e-06
1.367530e+01	1.488785e-04
1.368572e+01	1.582217e-03
1.369615e+01	3.141582e-03
1.370657e+01	1.165410e-03
1.371699e+01	8.081798e-05
1.372742e+01	1.756951e-05
1.373784e+01	1.094774e-03
1.374826e+01	1.355157e-02
1.375869e+01	3.134075e-02
1.376911e+01	1.361945e-02
1.377953e+01	3.899616e-03
1.378996e+01	1.889322e-02
1.380038e+01	2.384586e-02
1.381080e+01	8.060730e-03
1.382123e+01	9.352587e-03
1.383165e+01	6.221017e-03
1.384207e+01	8.232811e-04
1.385250e+01	5.233262e-04
1.386292e+01	1.582688e-03
1.387334e+01	9.276811e-04
1.388377e+01	1.015952e-04
1.389419e+01	2.078720e-06
1.390461e+01	7.946337e-09
1.391503e+01	5.675264e-12
1.392546e+01	1.674418e-42
1.393588e+01	0.000000e+00
1.394630e+01	0.000000e+00
1.395673e+01	0.000000e+00
1.396715e+01	0.000000e+00
1.397757e+01	0.000000e+00
1.398800e+01	9.064722e-12
1.399842e+01	1.477951e-08
1.400884e+01	4.504112e-06
1.401927e+01	2.569150e-04
1.402969e+01	2.752187e-03
1.404011e+01	5.590531e-03
1.405054e+01	2.209714e-03
1.406096e+01	1.811651e-04
1.407138e+01	4.562083e-05
1.408181e+01	5.230325e-04
1.409223e+01	1.209568e-03
1.410265e+01	5.226280e-04
1.411308e+01	4.218984e-05
1.412350e+01	9.732478e-07
1.413392e+01	4.785821e-05
1.414435e+01	1.269890e-03
1.415477e+01	6.295649e-03
1.416519e+01	5.831267e-03
1.417562e+01	1.009098e-03
1.418604e+01	3.262512e-05
1.419646e+01	1.970706e-07
1.420689e+01	4.463224e-09
1.421731e+01	2.767885e-06
1.422773e+01	3.375158e-04
1.423816e+01	7.689324e-03
1.424858e+01	3.272883e-02
1.425900e+01	2.602680e-02
1.426943e+01	3.866869e-03
1.427985e+01	1.073362e-04
1.429027e+01	5.566485e-07
1.430069e+01	5.393418e-10
1.431112e+01	9.911984e-39
1.432154e+01	1.911340e-15
1.433196e+01	8.037692e-12
1.434239e+01	6.765375e-09
1.435281e+01	1.351550e-06
1.436323e+01	8.237328e-05
1.437366e+01	1.520019e-03
1.438408e+01	6.828400e-03
1.439450e+01	6.593699e-03
1.440493e+01	1.566725e-03
1.441535e+01	2.849479e-03
1.442577e+01	5.556076e-03
1.443620e+01	2.060952e-03
1.444662e+01	1.428389e-04
1.445704e+01	1.849580e-06
1.446747e+01	4.474537e-09
1.447789e+01	2.022420e-12
1.448831e+01	2.131098e-34
1.449874e+01	2.034072e-36
1.450916e+01	5.500273e-12
1.451958e+01	8.963425e-09
1.453001e+01	2.729052e-06
1.454043e+01	1.552379e-04
1.455085e+01	1.649803e-03
1.456128e+01	3.275777e-03
1.457170e+01	1.215192e-03
1.458212e+01	8.422160e-05
1.459255e+01	1.090562e-06
1.460297e+01	2.638419e-09
1.461339e+01	3.937510e-10
1.462382e+01	2.562136e-07
1.463424e+01	3.124267e-05
1.464466e+01	7.117742e-04
1.465509e+01	3.029595e-03
1.466551e+01	2.409212e-03
1.467593e+01	3.579427e-04
1.468636e+01	9.945493e-06
1.469678e+01	2.240190e-06
1.470720e+01	9.177012e-05
1.471762e+01	7.189191e-04
1.472805e+01	1.056034e-03
1.473847e+01	4.900035e-04
1.474889e+01	2.787952e-03
1.475932e+01	1.621215e-02
1.476974e+01	3.184390e-02
1.478016e+01	1.416119e-02
1.479059e+01	2.377827e-03
1.480101e+01	1.147536e-03
1.481143e+01	3.648872e-04
1.482186e+01	2.490034e-05
1.483228e+01	3.219200e-07
1.484270e+01	7.786699e-10
1.485313e+01	3.519400e-13
1.486355e+01	1.601757e-32
1.487397e+01	4.084326e-33
1.488440e+01	1.207111e-33
1.489482e+01	8.302179e-35
1.490524e+01	1.074778e-36
1.491567e+01	2.600103e-39
1.492609e+01	1.220134e-42
1.493651e+01	1.356237e-40
1.494694e+01	7.774951e-38
1.495736e+01	8.982478e-36
1.496778e+01	2.514413e-34
1.497821e+01	2.190875e-33
1.498863e+01	5.486721e-33
1.499905e+01	3.039242e-33
1.500000e+01	2.658514e-33