File: cif_pxrd_calculator/example/txt/itwotheta/li0.5tio2_li2fev3o8_180011.txt
# 2theta [deg]	I_scaled [a.u.]	Wavelength = 0.20721 Å
0.000000e+00	0.000000e+00
1.042325e-02	0.000000e+00
2.084649e-02	0.000000e+00
3.126974e-02	0.000000e+00
4.169299e-02	0.000000e+00
5.211623e-02	0.000000e+00
6.253948e-02	0.000000e+00
7.296273e-02	0.000000e+00
8.338598e-02	0.000000e+00
9.380922e-02	0.000000e+00
1.042325e-01	0.000000e+00
1.146557e-01	0.000000e+00
1.250790e-01	0.000000e+00
1.355022e-01	0.000000e+00
1.459255e-01	0.000000e+00
1.563487e-01	0.000000e+00
1.667720e-01	0.000000e+00
1.771952e-01	0.000000e+00
1.876184e-01	0.000000e+00
1.980417e-01	0.000000e+00
2.084649e-01	0.000000e+00
2.188882e-01	0.000000e+00
2.293114e-01	0.000000e+00
2.397347e-01	0.000000e+00
2.501579e-01	0.000000e+00
2.605812e-01	0.000000e+00
2.710044e-01	0.000000e+00
2.814277e-01	0.000000e+00
2.918509e-01	0.000000e+00
3.022742e-01	0.000000e+00
3.126974e-01	0.000000e+00
3.231207e-01	0.000000e+00
3.335439e-01	0.000000e+00
3.439672e-01	0.000000e+00
3.543904e-01	0.000000e+00
3.648136e-01	0.000000e+00
3.752369e-01	0.000000e+00
3.856601e-01	0.000000e+00
3.960834e-01	0.000000e+00
4.065066e-01	0.000000e+00
4.169299e-01	0.000000e+00
4.273531e-01	0.000000e+00
4.377764e-01	0.000000e+00
4.481996e-01	0.000000e+00
4.586229e-01	0.000000e+00
4.690461e-01	0.000000e+00
4.794694e-01	0.000000e+00
4.898926e-01	0.000000e+00
5.003159e-01	0.000000e+00
5.107391e-01	0.000000e+00
5.211623e-01	0.000000e+00
5.315856e-01	0.000000e+00
5.420088e-01	0.000000e+00
5.524321e-01	0.000000e+00
5.628553e-01	0.000000e+00
5.732786e-01	0.000000e+00
5.837018e-01	0.000000e+00
5.941251e-01	0.000000e+00
6.045483e-01	0.000000e+00
6.149716e-01	0.000000e+00
6.253948e-01	0.000000e+00
6.358181e-01	0.000000e+00
6.462413e-01	0.000000e+00
6.566646e-01	0.000000e+00
6.670878e-01	0.000000e+00
6.775111e-01	0.000000e+00
6.879343e-01	0.000000e+00
6.983575e-01	0.000000e+00
7.087808e-01	0.000000e+00
7.192040e-01	0.000000e+00
7.296273e-01	0.000000e+00
7.400505e-01	0.000000e+00
7.504738e-01	0.000000e+00
7.608970e-01	0.000000e+00
7.713203e-01	0.000000e+00
7.817435e-01	0.000000e+00
7.921668e-01	0.000000e+00
8.025900e-01	0.000000e+00
8.130133e-01	0.000000e+00
8.234365e-01	0.000000e+00
8.338598e-01	0.000000e+00
8.442830e-01	0.000000e+00
8.547063e-01	0.000000e+00
8.651295e-01	0.000000e+00
8.755527e-01	0.000000e+00
8.859760e-01	0.000000e+00
8.963992e-01	0.000000e+00
9.068225e-01	0.000000e+00
9.172457e-01	0.000000e+00
9.276690e-01	0.000000e+00
9.380922e-01	0.000000e+00
9.485155e-01	1.608672e-39
9.589387e-01	3.053438e-36
9.693620e-01	1.082827e-33
9.797852e-01	7.174257e-32
9.902085e-01	8.880616e-31
1.000632e+00	2.053797e-30
1.011055e+00	8.874010e-31
1.021478e+00	7.163587e-32
1.031901e+00	1.080412e-33
1.042325e+00	3.044362e-36
1.052748e+00	1.602697e-39
1.063171e+00	0.000000e+00
1.073594e+00	0.000000e+00
1.084018e+00	0.000000e+00
1.094441e+00	0.000000e+00
1.104864e+00	0.000000e+00
1.115287e+00	0.000000e+00
1.125711e+00	0.000000e+00
1.136134e+00	0.000000e+00
1.146557e+00	0.000000e+00
1.156980e+00	0.000000e+00
1.167404e+00	0.000000e+00
1.177827e+00	0.000000e+00
1.188250e+00	0.000000e+00
1.198673e+00	0.000000e+00
1.209097e+00	0.000000e+00
1.219520e+00	0.000000e+00
1.229943e+00	0.000000e+00
1.240366e+00	0.000000e+00
1.250790e+00	0.000000e+00
1.261213e+00	0.000000e+00
1.271636e+00	0.000000e+00
1.282059e+00	0.000000e+00
1.292483e+00	0.000000e+00
1.302906e+00	0.000000e+00
1.313329e+00	0.000000e+00
1.323752e+00	0.000000e+00
1.334176e+00	0.000000e+00
1.344599e+00	0.000000e+00
1.355022e+00	0.000000e+00
1.365445e+00	0.000000e+00
1.375869e+00	0.000000e+00
1.386292e+00	0.000000e+00
1.396715e+00	0.000000e+00
1.407138e+00	0.000000e+00
1.417562e+00	0.000000e+00
1.427985e+00	0.000000e+00
1.438408e+00	0.000000e+00
1.448831e+00	0.000000e+00
1.459255e+00	0.000000e+00
1.469678e+00	0.000000e+00
1.480101e+00	0.000000e+00
1.490524e+00	0.000000e+00
1.500948e+00	0.000000e+00
1.511371e+00	0.000000e+00
1.521794e+00	0.000000e+00
1.532217e+00	0.000000e+00
1.542641e+00	0.000000e+00
1.553064e+00	0.000000e+00
1.563487e+00	0.000000e+00
1.573910e+00	0.000000e+00
1.584334e+00	0.000000e+00
1.594757e+00	0.000000e+00
1.605180e+00	0.000000e+00
1.615603e+00	0.000000e+00
1.626027e+00	0.000000e+00
1.636450e+00	0.000000e+00
1.646873e+00	0.000000e+00
1.657296e+00	0.000000e+00
1.667720e+00	0.000000e+00
1.678143e+00	0.000000e+00
1.688566e+00	0.000000e+00
1.698989e+00	0.000000e+00
1.709413e+00	0.000000e+00
1.719836e+00	0.000000e+00
1.730259e+00	0.000000e+00
1.740682e+00	0.000000e+00
1.751105e+00	0.000000e+00
1.761529e+00	0.000000e+00
1.771952e+00	0.000000e+00
1.782375e+00	0.000000e+00
1.792798e+00	0.000000e+00
1.803222e+00	0.000000e+00
1.813645e+00	0.000000e+00
1.824068e+00	0.000000e+00
1.834491e+00	9.696961e-41
1.844915e+00	1.164827e-37
1.855338e+00	2.614179e-35
1.865761e+00	1.096118e-33
1.876184e+00	7.247639e-11
1.886608e+00	2.173773e-07
1.897031e+00	1.218092e-04
1.907454e+00	1.275246e-02
1.917877e+00	2.494342e-01
1.928301e+00	9.115203e-01
1.938724e+00	6.223358e-01
1.949147e+00	7.938371e-02
1.959570e+00	1.892034e-03
1.969994e+00	8.549226e-05
1.980417e+00	5.947429e-03
1.990840e+00	8.574857e-02
2.001263e+00	2.309794e-01
2.011687e+00	1.162432e-01
2.022110e+00	1.092975e-02
2.032533e+00	1.919999e-04
2.042956e+00	6.301443e-07
2.053380e+00	3.863911e-10
2.063803e+00	0.000000e+00
2.074226e+00	0.000000e+00
2.084649e+00	0.000000e+00
2.095073e+00	0.000000e+00
2.105496e+00	0.000000e+00
2.115919e+00	0.000000e+00
2.126342e+00	0.000000e+00
2.136766e+00	0.000000e+00
2.147189e+00	0.000000e+00
2.157612e+00	0.000000e+00
2.168035e+00	0.000000e+00
2.178459e+00	0.000000e+00
2.188882e+00	0.000000e+00
2.199305e+00	0.000000e+00
2.209728e+00	0.000000e+00
2.220152e+00	0.000000e+00
2.230575e+00	0.000000e+00
2.240998e+00	0.000000e+00
2.251421e+00	0.000000e+00
2.261845e+00	7.422839e-13
2.272268e+00	3.020311e-09
2.282691e+00	2.296050e-06
2.293114e+00	3.261064e-04
2.303538e+00	8.653373e-03
2.313961e+00	4.290024e-02
2.324384e+00	3.973581e-02
2.334807e+00	6.876266e-03
2.345231e+00	2.223163e-04
2.355654e+00	1.342883e-06
2.366077e+00	1.515491e-09
2.376500e+00	8.897642e-42
2.386924e+00	2.668656e-38
2.397347e+00	1.495403e-35
2.407770e+00	1.565569e-33
2.418193e+00	3.062206e-32
2.428617e+00	1.119038e-31
2.439040e+00	7.640173e-32
2.449463e+00	9.745627e-33
2.459886e+00	2.322547e-34
2.470310e+00	1.034112e-36
2.480733e+00	8.602377e-40
2.491156e+00	0.000000e+00
2.501579e+00	0.000000e+00
2.512003e+00	0.000000e+00
2.522426e+00	0.000000e+00
2.532849e+00	0.000000e+00
2.543272e+00	0.000000e+00
2.553696e+00	0.000000e+00
2.564119e+00	0.000000e+00
2.574542e+00	0.000000e+00
2.584965e+00	0.000000e+00
2.595389e+00	0.000000e+00
2.605812e+00	0.000000e+00
2.616235e+00	0.000000e+00
2.626658e+00	0.000000e+00
2.637081e+00	0.000000e+00
2.647505e+00	0.000000e+00
2.657928e+00	0.000000e+00
2.668351e+00	0.000000e+00
2.678774e+00	0.000000e+00
2.689198e+00	0.000000e+00
2.699621e+00	0.000000e+00
2.710044e+00	0.000000e+00
2.720467e+00	0.000000e+00
2.730891e+00	0.000000e+00
2.741314e+00	0.000000e+00
2.751737e+00	0.000000e+00
2.762160e+00	0.000000e+00
2.772584e+00	0.000000e+00
2.783007e+00	0.000000e+00
2.793430e+00	0.000000e+00
2.803853e+00	0.000000e+00
2.814277e+00	0.000000e+00
2.824700e+00	0.000000e+00
2.835123e+00	0.000000e+00
2.845546e+00	0.000000e+00
2.855970e+00	0.000000e+00
2.866393e+00	0.000000e+00
2.876816e+00	0.000000e+00
2.887239e+00	0.000000e+00
2.897663e+00	0.000000e+00
2.908086e+00	0.000000e+00
2.918509e+00	0.000000e+00
2.928932e+00	0.000000e+00
2.939356e+00	0.000000e+00
2.949779e+00	2.437903e-41
2.960202e+00	6.277723e-38
2.970625e+00	3.020202e-35
2.981049e+00	2.714676e-33
2.991472e+00	4.558780e-32
3.001895e+00	1.430568e-31
3.012318e+00	8.627031e-32
3.022742e+00	4.998913e-32
3.033165e+00	1.282193e-31
3.043588e+00	7.504940e-32
3.054011e+00	8.218975e-33
3.064435e+00	1.681677e-34
3.074858e+00	1.303113e-36
3.085281e+00	9.377673e-35
3.095704e+00	2.488394e-33
3.106128e+00	1.233654e-32
3.116551e+00	1.142657e-32
3.126974e+00	2.298379e-11
3.137397e+00	3.745513e-08
3.147821e+00	1.140379e-05
3.158244e+00	6.486869e-04
3.168667e+00	6.893969e-03
3.179090e+00	1.368837e-02
3.189514e+00	5.077877e-03
3.199937e+00	3.519336e-04
3.210360e+00	4.557090e-06
3.220783e+00	4.083532e-08
3.231207e+00	2.639577e-05
3.241630e+00	4.366608e-03
3.252053e+00	1.349591e-01
3.262476e+00	7.793069e-01
3.272900e+00	8.407423e-01
3.283323e+00	1.694593e-01
3.293746e+00	6.381403e-03
3.304169e+00	4.489676e-05
3.314593e+00	5.901495e-08
3.325016e+00	1.449296e-11
3.335439e+00	0.000000e+00
3.345862e+00	0.000000e+00
3.356286e+00	0.000000e+00
3.366709e+00	0.000000e+00
3.377132e+00	0.000000e+00
3.387555e+00	0.000000e+00
3.397979e+00	0.000000e+00
3.408402e+00	0.000000e+00
3.418825e+00	0.000000e+00
3.429248e+00	0.000000e+00
3.439672e+00	0.000000e+00
3.450095e+00	0.000000e+00
3.460518e+00	0.000000e+00
3.470941e+00	0.000000e+00
3.481364e+00	0.000000e+00
3.491788e+00	0.000000e+00
3.502211e+00	0.000000e+00
3.512634e+00	0.000000e+00
3.523057e+00	0.000000e+00
3.533481e+00	0.000000e+00
3.543904e+00	0.000000e+00
3.554327e+00	0.000000e+00
3.564750e+00	0.000000e+00
3.575174e+00	0.000000e+00
3.585597e+00	5.454972e-13
3.596020e+00	8.889600e-10
3.606443e+00	2.706575e-07
3.616867e+00	1.539594e-05
3.627290e+00	1.636215e-04
3.637713e+00	3.248797e-04
3.648136e+00	1.205183e-04
3.658560e+00	8.352794e-06
3.668983e+00	1.081580e-07
3.679406e+00	2.616577e-10
3.689829e+00	1.182651e-13
3.700253e+00	2.684954e-31
3.710676e+00	9.935337e-32
3.721099e+00	5.826967e-10
3.731522e+00	6.009472e-07
3.741946e+00	1.157919e-04
3.752369e+00	4.168389e-03
3.762792e+00	2.803538e-02
3.773215e+00	3.522840e-02
3.783639e+00	8.270417e-03
3.794062e+00	3.627522e-04
3.804485e+00	2.972631e-06
3.814908e+00	1.797030e-08
3.825332e+00	1.188198e-05
3.835755e+00	1.965732e-03
3.846178e+00	6.081064e-02
3.856601e+00	3.561413e-01
3.867025e+00	4.681295e-01
3.877448e+00	3.576274e-01
3.887871e+00	1.677903e-01
3.898294e+00	1.808121e-02
3.908718e+00	3.702214e-04
3.919141e+00	1.718833e-04
3.929564e+00	8.325372e-03
3.939987e+00	7.596365e-02
3.950411e+00	1.294959e-01
3.960834e+00	4.124346e-02
3.971257e+00	2.476819e-03
3.981680e+00	2.400392e-03
3.992104e+00	4.641734e-02
4.002527e+00	1.696250e-01
4.012950e+00	1.158106e-01
4.023373e+00	1.477253e-02
4.033797e+00	3.520544e-04
4.044220e+00	1.567518e-06
4.054643e+00	1.303958e-09
4.065066e+00	5.544482e-34
4.075490e+00	6.248059e-35
4.085913e+00	3.390611e-33
4.096336e+00	3.603394e-32
4.106759e+00	7.154744e-32
4.117183e+00	2.654145e-32
4.127606e+00	1.839515e-33
4.138029e+00	2.381936e-35
4.148452e+00	5.762421e-38
4.158876e+00	2.604522e-41
4.169299e+00	0.000000e+00
4.179722e+00	0.000000e+00
4.190145e+00	0.000000e+00
4.200569e+00	0.000000e+00
4.210992e+00	0.000000e+00
4.221415e+00	1.653693e-42
4.231838e+00	4.959896e-39
4.242262e+00	2.779319e-36
4.252685e+00	2.909728e-34
4.263108e+00	5.691339e-33
4.273531e+00	4.519236e-10
4.283955e+00	7.364695e-07
4.294378e+00	2.242295e-04
4.304801e+00	1.275515e-02
4.315224e+00	1.356276e-01
4.325648e+00	2.740152e-01
4.336071e+00	1.600623e-01
4.346494e+00	1.461833e-01
4.356917e+00	6.026226e-02
4.367340e+00	4.857684e-03
4.377764e+00	7.326039e-05
4.388187e+00	2.064313e-07
4.398610e+00	1.086753e-10
4.409033e+00	6.193677e-37
4.419457e+00	1.390024e-34
4.429880e+00	5.828335e-33
4.440303e+00	4.565777e-32
4.450726e+00	6.682409e-32
4.461150e+00	1.827257e-32
4.471573e+00	9.334999e-34
4.481996e+00	8.909987e-36
4.492419e+00	1.588869e-38
4.502843e+00	5.293552e-42
4.513266e+00	0.000000e+00
4.523689e+00	0.000000e+00
4.534112e+00	0.000000e+00
4.544536e+00	0.000000e+00
4.554959e+00	0.000000e+00
4.565382e+00	0.000000e+00
4.575805e+00	0.000000e+00
4.586229e+00	5.365751e-11
4.596652e+00	1.186272e-07
4.607075e+00	4.899886e-05
4.617498e+00	3.781255e-03
4.627922e+00	5.451727e-02
4.638345e+00	1.468522e-01
4.648768e+00	7.390518e-02
4.659191e+00	6.948923e-03
4.669615e+00	1.220698e-04
4.680038e+00	4.006335e-07
4.690461e+00	2.456599e-10
4.700884e+00	0.000000e+00
4.711308e+00	0.000000e+00
4.721731e+00	0.000000e+00
4.732154e+00	2.726594e-40
4.742577e+00	6.028012e-37
4.753001e+00	2.489866e-34
4.763424e+00	1.921436e-32
4.773847e+00	1.255292e-09
4.784270e+00	1.111493e-06
4.794694e+00	1.838724e-04
4.805117e+00	5.682961e-03
4.815540e+00	3.281564e-02
4.825963e+00	3.540265e-02
4.836387e+00	7.143421e-03
4.846810e+00	5.915747e-04
4.857233e+00	2.531112e-03
4.867656e+00	3.701736e-03
4.878080e+00	1.012213e-03
4.888503e+00	5.171141e-05
4.898926e+00	4.937781e-07
4.909349e+00	3.392247e-07
4.919773e+00	1.030142e-04
4.930196e+00	5.859804e-03
4.940619e+00	6.227550e-02
4.951042e+00	1.236515e-01
4.961466e+00	4.587014e-02
4.971889e+00	3.179133e-03
4.982312e+00	4.116570e-05
4.992735e+00	9.958879e-08
5.003159e+00	4.501255e-11
5.013582e+00	8.951282e-32
5.024005e+00	1.548966e-32
5.034428e+00	5.026411e-34
5.044852e+00	1.386424e-11
5.055275e+00	3.065136e-08
5.065698e+00	1.266052e-05
5.076121e+00	9.770158e-04
5.086545e+00	1.408639e-02
5.096968e+00	3.794426e-02
5.107391e+00	1.909593e-02
5.117814e+00	1.805041e-03
5.128238e+00	1.031405e-03
5.138661e+00	1.955715e-02
5.149084e+00	7.146831e-02
5.159507e+00	4.879462e-02
5.169931e+00	6.224128e-03
5.180354e+00	1.483315e-04
5.190777e+00	6.604443e-07
5.201200e+00	5.493982e-10
5.211623e+00	0.000000e+00
5.222047e+00	0.000000e+00
5.232470e+00	2.429411e-13
5.242893e+00	9.885136e-10
5.253316e+00	7.514713e-07
5.263740e+00	1.067309e-04
5.274163e+00	2.832151e-03
5.284586e+00	1.404076e-02
5.295009e+00	1.300508e-02
5.305433e+00	2.250524e-03
5.315856e+00	7.276162e-05
5.326279e+00	4.395105e-07
5.336702e+00	4.960030e-10
5.347126e+00	4.353655e-36
5.357549e+00	4.218296e-39
5.367972e+00	0.000000e+00
5.378395e+00	0.000000e+00
5.388819e+00	0.000000e+00
5.399242e+00	0.000000e+00
5.409665e+00	0.000000e+00
5.420088e+00	0.000000e+00
5.430512e+00	0.000000e+00
5.440935e+00	0.000000e+00
5.451358e+00	0.000000e+00
5.461781e+00	0.000000e+00
5.472205e+00	7.725352e-12
5.482628e+00	1.258949e-08
5.493051e+00	3.833062e-06
5.503474e+00	2.180378e-04
5.513898e+00	2.317213e-03
5.524321e+00	4.600959e-03
5.534744e+00	1.706785e-03
5.545167e+00	1.182926e-04
5.555591e+00	1.531737e-06
5.566014e+00	3.705606e-09
5.576437e+00	1.674875e-12
5.586860e+00	2.245413e-31
5.597284e+00	9.637271e-32
5.607707e+00	7.775183e-33
5.618130e+00	1.174351e-34
5.628553e+00	2.941153e-35
5.638977e+00	8.988130e-34
5.649400e+00	5.190097e-33
5.659823e+00	2.782391e-10
5.670246e+00	3.342921e-07
5.680670e+00	7.517271e-05
5.691093e+00	3.223534e-03
5.701516e+00	3.168475e-02
5.711939e+00	1.543924e-01
5.722363e+00	3.811231e-01
5.732786e+00	2.181282e-01
5.743209e+00	2.383801e-02
5.753632e+00	4.884798e-04
5.764056e+00	2.943186e-04
5.774479e+00	1.937654e-02
5.784902e+00	2.398515e-01
5.795325e+00	5.546981e-01
5.805749e+00	2.396730e-01
5.816172e+00	1.934772e-02
5.826595e+00	2.918022e-04
5.837018e+00	8.222342e-07
5.847442e+00	4.337836e-10
5.857865e+00	1.105622e-09
5.868288e+00	2.481308e-07
5.878711e+00	1.040406e-05
5.889135e+00	8.150287e-05
5.899558e+00	1.192865e-04
5.909981e+00	3.261820e-05
5.920404e+00	1.772361e-06
5.930828e+00	1.294001e-05
5.941251e+00	2.944385e-04
5.951674e+00	1.253247e-03
5.962097e+00	9.966145e-04
5.972521e+00	1.481143e-04
5.982944e+00	1.272670e-05
5.993367e+00	3.102101e-04
6.003790e+00	2.086240e-03
6.014214e+00	2.621505e-03
6.024637e+00	6.154415e-04
6.035060e+00	2.899653e-05
6.045483e+00	3.314895e-04
6.055907e+00	1.023854e-02
6.066330e+00	5.912132e-02
6.076753e+00	6.378205e-02
6.087176e+00	1.285586e-02
6.097599e+00	4.841186e-04
6.108023e+00	3.406280e-06
6.118446e+00	1.819817e-07
6.128869e+00	2.521085e-05
6.139292e+00	6.689806e-04
6.149716e+00	3.316559e-03
6.160139e+00	3.071922e-03
6.170562e+00	5.315950e-04
6.180985e+00	1.760613e-05
6.191409e+00	1.732342e-04
6.201832e+00	1.336052e-02
6.212255e+00	1.926289e-01
6.222678e+00	5.188810e-01
6.233102e+00	2.611333e-01
6.243525e+00	2.455302e-02
6.253948e+00	4.313161e-04
6.264371e+00	1.415581e-06
6.274795e+00	8.680039e-10
6.285218e+00	2.198271e-33
6.295641e+00	2.005781e-32
6.306064e+00	1.119750e-12
6.316488e+00	2.883411e-09
6.326911e+00	1.387206e-06
6.337334e+00	1.246942e-04
6.347757e+00	2.098376e-03
6.358181e+00	7.117265e-03
6.368604e+00	1.633063e-02
6.379027e+00	5.354063e-02
6.389450e+00	4.225014e-02
6.399874e+00	6.275963e-03
6.410297e+00	1.742089e-04
6.420720e+00	2.342359e-06
6.431143e+00	1.754625e-04
6.441567e+00	3.997387e-03
6.451990e+00	1.701447e-02
6.462413e+00	1.353035e-02
6.472836e+00	2.010255e-03
6.483260e+00	6.522116e-05
6.493683e+00	9.866142e-04
6.504106e+00	1.929449e-02
6.514529e+00	7.074742e-02
6.524953e+00	5.296870e-02
6.535376e+00	2.380875e-02
6.545799e+00	1.220970e-02
6.556222e+00	1.539427e-03
6.566646e+00	3.667217e-05
6.577069e+00	1.632800e-07
6.587492e+00	1.361648e-10
6.597915e+00	1.014943e-09
6.608339e+00	5.687320e-07
6.618762e+00	5.954381e-05
6.629185e+00	1.166219e-03
6.639608e+00	4.483381e-03
6.650032e+00	8.942088e-03
6.660455e+00	3.038821e-02
6.670878e+00	3.023822e-02
6.681301e+00	1.725836e-02
6.691725e+00	1.169796e-02
6.702148e+00	1.998430e-03
6.712571e+00	6.458195e-05
6.722994e+00	3.900955e-07
6.733418e+00	4.402364e-10
6.743841e+00	1.962087e-33
6.754264e+00	3.294482e-32
6.764687e+00	1.632942e-31
6.775111e+00	1.512492e-31
6.785534e+00	2.617522e-32
6.795957e+00	9.352869e-13
6.806380e+00	3.805629e-09
6.816804e+00	2.893052e-06
6.827227e+00	4.108981e-04
6.837650e+00	1.090336e-02
6.848073e+00	5.405483e-02
6.858497e+00	5.006761e-02
6.868920e+00	8.664185e-03
6.879343e+00	2.845080e-04
6.889766e+00	7.273759e-04
6.900190e+00	2.242878e-02
6.910613e+00	1.295125e-01
6.921036e+00	1.397225e-01
6.931459e+00	2.818759e-02
6.941883e+00	2.293604e-03
6.952306e+00	1.125859e-02
6.962729e+00	1.918848e-02
6.973152e+00	6.419644e-03
6.983575e+00	2.455322e-03
6.993999e+00	2.632575e-03
7.004422e+00	6.170978e-04
7.014845e+00	2.706642e-05
7.025268e+00	2.218000e-07
7.035692e+00	3.395788e-10
7.046115e+00	9.713321e-14
7.056538e+00	1.726814e-33
7.066961e+00	3.367840e-11
7.077385e+00	4.712042e-08
7.087808e+00	1.231729e-05
7.098231e+00	6.015463e-04
7.108654e+00	5.488722e-03
7.119078e+00	9.356676e-03
7.129501e+00	2.980026e-03
7.139924e+00	1.773237e-04
7.150347e+00	1.971340e-06
7.160771e+00	4.094535e-09
7.171194e+00	1.588897e-12
7.181617e+00	1.891431e-33
7.192040e+00	2.010134e-32
7.202464e+00	3.991781e-32
7.212887e+00	1.516990e-32
7.223310e+00	8.856008e-13
7.233733e+00	2.656169e-09
7.244157e+00	1.488406e-06
7.254580e+00	1.558244e-04
7.265003e+00	3.047878e-03
7.275426e+00	1.113801e-02
7.285850e+00	7.604795e-03
7.296273e+00	1.083708e-03
7.306696e+00	6.574720e-03
7.317119e+00	7.371152e-02
7.327543e+00	1.836200e-01
7.337966e+00	1.317115e-01
7.348389e+00	3.593361e-02
7.358812e+00	1.099164e-01
7.369236e+00	3.349211e-01
7.379659e+00	1.948869e-01
7.390082e+00	3.548640e-02
7.400505e+00	5.304439e-02
7.410929e+00	3.592462e-02
7.421352e+00	4.582254e-03
7.431775e+00	1.092028e-04
7.442198e+00	4.862243e-07
7.452622e+00	4.044713e-10
7.463045e+00	1.540108e-32
7.473468e+00	6.380864e-33
7.483891e+00	9.066587e-33
7.494315e+00	1.330262e-09
7.504738e+00	1.371926e-06
7.515161e+00	2.643460e-04
7.525584e+00	9.516237e-03
7.536008e+00	6.402213e-02
7.546431e+00	8.168530e-02
7.556854e+00	3.448988e-02
7.567277e+00	3.692668e-02
7.577701e+00	1.560418e-02
7.588124e+00	1.259118e-03
7.598547e+00	1.898987e-05
7.608970e+00	9.170427e-08
7.619394e+00	1.354497e-05
7.629817e+00	8.974226e-04
7.640240e+00	1.111046e-02
7.650663e+00	2.585347e-02
7.661087e+00	1.383409e-02
7.671510e+00	9.472970e-03
7.681933e+00	5.041061e-03
7.692356e+00	5.506359e-04
7.702780e+00	1.219454e-05
7.713203e+00	3.348404e-05
7.723626e+00	2.250195e-04
7.734049e+00	3.198631e-04
7.744473e+00	2.523693e-03
7.754896e+00	3.031259e-02
7.765319e+00	6.988117e-02
7.775742e+00	3.011427e-02
7.786166e+00	2.425455e-03
7.796589e+00	3.650913e-05
7.807012e+00	2.172933e-07
7.817435e+00	2.571758e-05
7.827858e+00	1.078329e-03
7.838282e+00	8.447370e-03
7.848705e+00	1.236346e-02
7.859128e+00	3.380699e-03
7.869551e+00	1.730344e-04
7.879975e+00	3.067510e-05
7.890398e+00	4.874546e-04
7.900821e+00	1.533613e-03
7.911244e+00	1.502997e-03
7.921668e+00	1.620083e-02
7.932091e+00	8.066535e-02
7.942514e+00	9.099348e-02
7.952937e+00	7.523970e-02
7.963361e+00	4.313203e-02
7.973784e+00	9.393493e-03
7.984207e+00	3.620338e-02
7.994630e+00	6.273555e-02
8.005054e+00	4.379736e-02
8.015477e+00	8.847922e-02
8.025900e+00	5.902838e-02
8.036323e+00	7.471712e-03
8.046747e+00	1.916944e-04
8.057170e+00	1.314873e-03
8.067593e+00	2.206758e-02
8.078016e+00	6.923696e-02
8.088440e+00	4.062387e-02
8.098863e+00	4.804603e-03
8.109286e+00	7.046183e-04
8.119709e+00	1.957991e-04
8.130133e+00	1.163041e-05
8.140556e+00	1.292946e-07
8.150979e+00	2.685490e-10
8.161402e+00	1.839241e-12
8.171826e+00	7.061520e-09
8.182249e+00	5.372184e-06
8.192672e+00	7.652448e-04
8.203095e+00	2.054034e-02
8.213519e+00	1.064130e-01
8.223942e+00	1.153066e-01
8.234365e+00	3.138484e-02
8.244788e+00	2.472825e-03
8.255212e+00	4.968640e-05
8.265635e+00	2.107947e-07
8.276058e+00	1.920383e-10
8.286481e+00	2.359065e-08
8.296905e+00	5.304090e-06
8.307328e+00	2.253607e-04
8.317751e+00	1.933887e-03
8.328174e+00	4.620796e-03
8.338598e+00	4.818436e-03
8.349021e+00	1.564903e-03
8.359444e+00	1.063348e-04
8.369867e+00	1.373173e-06
8.380291e+00	1.163943e-07
8.390714e+00	3.940123e-05
8.401137e+00	2.570844e-03
8.411560e+00	3.140134e-02
8.421984e+00	7.178661e-02
8.432407e+00	3.126603e-02
8.442830e+00	2.263375e-02
8.453253e+00	1.357385e-01
8.463677e+00	1.705187e-01
8.474100e+00	4.006817e-02
8.484523e+00	5.553567e-03
8.494946e+00	7.429647e-02
8.505370e+00	2.714528e-01
8.515793e+00	1.853330e-01
8.526216e+00	2.364065e-02
8.536639e+00	5.636342e-04
8.547063e+00	6.500696e-06
8.557486e+00	1.252739e-05
8.567909e+00	7.342010e-06
8.578332e+00	8.083025e-07
8.588756e+00	1.124994e-06
8.599179e+00	5.413856e-05
8.609602e+00	4.939789e-04
8.620025e+00	8.421665e-04
8.630449e+00	2.790138e-04
8.640872e+00	3.051144e-04
8.651295e+00	1.578189e-03
8.661718e+00	3.250774e-03
8.672142e+00	4.827509e-03
8.682565e+00	6.578665e-03
8.692988e+00	3.136054e-02
8.703411e+00	3.921303e-02
8.713834e+00	9.205327e-03
8.724258e+00	4.037584e-04
8.734681e+00	3.308662e-06
8.745104e+00	5.065606e-09
8.755527e+00	8.284308e-11
8.765951e+00	7.207004e-08
8.776374e+00	1.192243e-05
8.786797e+00	3.684875e-04
8.797220e+00	2.127791e-03
8.807644e+00	2.295532e-03
8.818067e+00	4.626855e-04
8.828490e+00	1.742355e-05
8.838913e+00	1.225845e-07
8.849337e+00	1.618800e-10
8.859760e+00	1.925542e-09
8.870183e+00	9.263560e-07
8.880606e+00	8.326450e-05
8.891030e+00	1.398267e-03
8.901453e+00	4.387007e-03
8.911876e+00	2.571549e-03
8.922299e+00	2.816238e-04
8.932723e+00	5.762250e-06
8.943146e+00	2.202739e-08
8.953569e+00	1.573193e-11
8.963992e+00	1.199521e-33
8.974416e+00	1.702260e-32
8.984839e+00	4.587314e-32
8.995262e+00	2.589835e-32
9.005685e+00	7.705597e-32
9.016109e+00	3.712965e-31
9.026532e+00	3.438736e-31
9.036955e+00	5.950715e-32
9.047378e+00	1.923924e-33
9.057802e+00	1.162134e-35
9.068225e+00	8.552573e-38
9.078648e+00	3.143512e-35
9.089071e+00	2.983855e-11
9.099495e+00	4.174798e-08
9.109918e+00	1.091293e-05
9.120341e+00	5.329609e-04
9.130764e+00	4.862925e-03
9.141188e+00	8.290079e-03
9.151611e+00	2.658731e-03
9.162034e+00	4.673238e-04
9.172457e+00	9.752484e-04
9.182881e+00	5.865397e-04
9.193304e+00	2.934014e-04
9.203727e+00	6.233087e-04
9.214150e+00	3.159188e-04
9.224574e+00	5.077667e-04
9.234997e+00	1.501984e-02
9.245420e+00	9.211863e-02
9.255843e+00	1.329016e-01
9.266267e+00	7.254933e-02
9.276690e+00	2.305837e-02
9.287113e+00	1.517578e-02
9.297536e+00	4.753524e-03
9.307960e+00	2.987638e-04
9.318383e+00	1.374239e-04
9.328806e+00	3.049812e-03
9.339229e+00	1.298118e-02
9.349653e+00	1.032297e-02
9.360076e+00	1.536629e-03
9.370499e+00	3.985600e-04
9.380922e+00	8.110369e-03
9.391346e+00	3.452002e-02
9.401769e+00	2.745121e-02
9.412192e+00	4.078496e-03
9.422615e+00	1.132105e-04
9.433039e+00	5.871130e-07
9.443462e+00	5.688591e-10
9.453885e+00	1.809244e-12
9.464308e+00	7.361710e-09
9.474732e+00	5.596397e-06
9.485155e+00	7.948523e-04
9.495578e+00	2.109175e-02
9.506001e+00	1.045658e-01
9.516425e+00	9.687105e-02
9.526848e+00	1.698947e-02
9.537271e+00	1.929260e-03
9.547694e+00	2.043636e-03
9.558117e+00	7.497698e-04
9.568541e+00	2.489028e-03
9.578964e+00	6.626524e-03
9.589387e+00	3.790644e-03
9.599810e+00	8.015299e-03
9.610234e+00	2.434149e-02
9.620657e+00	1.639654e-02
9.631080e+00	7.333599e-03
9.641503e+00	1.017935e-02
9.651927e+00	2.488085e-02
9.662350e+00	3.965790e-02
9.672773e+00	2.946397e-02
9.683196e+00	5.308175e-03
9.693620e+00	2.988851e-03
9.704043e+00	8.538698e-03
9.714466e+00	2.121013e-02
9.724889e+00	1.914962e-02
9.735313e+00	1.403358e-02
9.745736e+00	8.034082e-03
9.756159e+00	1.150147e-03
9.766582e+00	5.619299e-03
9.777006e+00	4.383095e-02
9.787429e+00	6.421997e-02
9.797852e+00	2.011148e-02
9.808275e+00	1.942659e-02
9.818699e+00	3.047645e-02
9.829122e+00	1.490231e-02
9.839545e+00	2.243011e-03
9.849968e+00	1.416205e-03
9.860392e+00	1.222014e-02
9.870815e+00	2.083093e-02
9.881238e+00	6.649175e-03
9.891661e+00	1.119344e-03
9.902085e+00	6.707104e-03
9.912508e+00	1.281654e-02
9.922931e+00	1.562077e-02
9.933354e+00	2.054511e-02
9.943778e+00	6.732396e-03
9.954201e+00	1.294855e-03
9.964624e+00	6.239301e-04
9.975047e+00	7.904269e-05
9.985471e+00	1.909159e-06
9.995894e+00	7.818975e-06
1.000632e+01	4.443799e-04
1.001674e+01	4.739362e-03
1.002716e+01	1.001077e-02
1.003759e+01	7.752388e-03
1.004801e+01	5.612283e-03
1.005843e+01	1.264104e-03
1.006886e+01	5.531606e-05
1.007928e+01	4.532385e-07
1.008970e+01	3.839840e-09
1.010013e+01	2.391549e-06
1.011055e+01	3.396707e-04
1.012097e+01	9.013720e-03
1.013140e+01	4.473004e-02
1.014182e+01	4.227830e-02
1.015224e+01	1.043581e-02
1.016267e+01	3.386318e-03
1.017309e+01	7.628634e-03
1.018351e+01	1.233280e-02
1.019394e+01	2.747150e-02
1.020436e+01	7.210931e-02
1.021478e+01	4.087259e-02
1.022521e+01	4.534753e-03
1.023563e+01	9.887121e-05
1.024605e+01	2.051163e-06
1.025648e+01	9.509519e-05
1.026690e+01	1.195120e-03
1.027732e+01	3.030975e-03
1.028774e+01	1.777814e-03
1.029817e+01	1.063046e-02
1.030859e+01	7.056958e-02
1.031901e+01	8.867252e-02
1.032944e+01	2.081726e-02
1.033986e+01	9.130746e-04
1.035028e+01	7.482334e-06
1.036071e+01	1.149695e-08
1.037113e+01	4.467141e-08
1.038155e+01	9.484544e-06
1.039198e+01	3.954625e-04
1.040240e+01	3.217186e-03
1.041282e+01	5.062378e-03
1.042325e+01	1.527424e-03
1.043367e+01	1.037601e-04
1.044409e+01	3.155550e-04
1.045452e+01	1.149775e-03
1.046494e+01	8.083575e-04
1.047536e+01	1.101450e-03
1.048579e+01	8.351651e-03
1.049621e+01	1.472431e-02
1.050663e+01	6.347707e-03
1.051706e+01	7.662222e-04
1.052748e+01	3.816972e-04
1.053790e+01	6.166126e-04
1.054833e+01	1.963487e-04
1.055875e+01	1.168904e-05
1.056917e+01	4.950294e-07
1.057960e+01	4.594259e-06
1.059002e+01	1.232836e-05
1.060044e+01	1.734727e-05
1.061087e+01	2.821616e-04
1.062129e+01	2.928192e-03
1.063171e+01	5.812231e-03
1.064214e+01	2.156112e-03
1.065256e+01	1.494342e-04
1.066298e+01	1.934981e-06
1.067340e+01	4.681141e-09
1.068383e+01	2.115801e-12
1.069425e+01	9.063154e-15
1.070467e+01	3.687746e-11
1.071510e+01	2.803437e-08
1.072552e+01	3.981702e-06
1.073594e+01	1.056569e-04
1.074637e+01	5.240449e-04
1.075679e+01	5.001127e-04
1.076721e+01	3.262759e-04
1.077764e+01	1.517241e-03
1.078806e+01	2.951745e-03
1.079848e+01	1.237199e-03
1.080891e+01	9.962060e-05
1.081933e+01	1.750283e-05
1.082975e+01	1.981237e-04
1.084018e+01	4.582676e-04
1.085060e+01	2.202518e-04
1.086102e+01	1.181273e-03
1.087145e+01	1.192927e-02
1.088187e+01	2.440324e-02
1.089229e+01	1.015709e-02
1.090272e+01	9.146709e-04
1.091314e+01	9.770031e-04
1.092356e+01	3.515685e-03
1.093399e+01	2.404232e-03
1.094441e+01	7.203244e-04
1.095483e+01	8.107960e-03
1.096526e+01	2.960270e-02
1.097568e+01	2.021107e-02
1.098610e+01	2.578077e-03
1.099653e+01	6.143992e-05
1.100695e+01	2.776386e-07
1.101737e+01	2.072468e-06
1.102780e+01	2.001232e-04
1.103822e+01	3.708275e-03
1.104864e+01	1.357233e-02
1.105907e+01	1.073114e-02
1.106949e+01	2.208814e-03
1.107991e+01	1.322969e-04
1.109033e+01	1.983564e-06
1.110076e+01	6.216367e-09
1.111118e+01	6.336595e-10
1.112160e+01	5.003293e-07
1.113203e+01	7.483558e-05
1.114245e+01	2.141036e-03
1.115287e+01	1.270466e-02
1.116330e+01	2.101644e-02
1.117372e+01	1.502431e-02
1.118414e+01	1.076921e-02
1.119457e+01	1.615316e-02
1.120499e+01	3.124562e-02
1.121541e+01	2.958062e-02
1.122584e+01	2.695757e-02
1.123626e+01	8.230777e-03
1.124668e+01	6.200002e-04
1.125711e+01	6.384400e-05
1.126753e+01	1.337393e-05
1.127795e+01	1.453619e-04
1.128838e+01	4.563054e-04
1.129880e+01	3.331237e-04
1.130922e+01	1.796281e-03
1.131965e+01	9.059422e-03
1.133007e+01	9.327472e-03
1.134049e+01	2.163270e-03
1.135092e+01	1.300815e-04
1.136134e+01	2.018371e-06
1.137176e+01	9.803903e-07
1.138219e+01	8.486947e-05
1.139261e+01	1.387412e-03
1.140303e+01	4.259646e-03
1.141346e+01	2.866814e-03
1.142388e+01	4.154542e-03
1.143430e+01	6.911799e-03
1.144473e+01	9.483803e-03
1.145515e+01	4.290288e-02
1.146557e+01	5.627625e-02
1.147599e+01	2.171451e-02
1.148642e+01	4.468751e-02
1.149684e+01	8.273607e-02
1.150726e+01	5.464141e-02
1.151769e+01	1.343200e-02
1.152811e+01	3.792524e-03
1.153853e+01	4.354899e-03
1.154896e+01	3.695945e-03
1.155938e+01	1.166721e-02
1.156980e+01	1.306507e-02
1.158023e+01	3.789635e-03
1.159065e+01	3.974986e-03
1.160107e+01	2.286237e-02
1.161150e+01	3.905570e-02
1.162192e+01	2.377121e-02
1.163234e+01	4.882280e-03
1.164277e+01	3.193981e-04
1.165319e+01	2.671231e-04
1.166361e+01	2.166014e-04
1.167404e+01	2.671201e-04
1.168446e+01	1.638804e-03
1.169488e+01	3.645250e-03
1.170531e+01	1.031279e-02
1.171573e+01	1.637976e-02
1.172615e+01	2.426536e-02
1.173658e+01	1.523812e-02
1.174700e+01	2.132066e-03
1.175742e+01	8.924483e-04
1.176785e+01	6.756342e-04
1.177827e+01	3.559743e-04
1.178869e+01	5.479366e-03
1.179912e+01	2.453194e-02
1.180954e+01	2.508270e-02
1.181996e+01	6.153573e-03
1.183039e+01	3.478640e-04
1.184081e+01	2.190029e-04
1.185123e+01	4.896268e-03
1.186166e+01	2.084043e-02
1.187208e+01	1.657284e-02
1.188250e+01	2.462603e-03
1.189292e+01	1.325903e-04
1.190335e+01	2.321638e-03
1.191377e+01	1.578068e-02
1.192419e+01	2.044487e-02
1.193462e+01	5.219885e-03
1.194504e+01	2.825529e-04
1.195546e+01	5.048780e-06
1.196589e+01	4.063434e-05
1.197631e+01	3.793936e-04
1.198673e+01	3.340558e-03
1.199716e+01	9.956421e-03
1.200758e+01	5.819240e-03
1.201800e+01	6.373099e-04
1.202843e+01	1.518193e-05
1.203885e+01	9.857383e-05
1.204927e+01	1.880360e-03
1.205970e+01	6.868256e-03
1.207012e+01	4.689224e-03
1.208054e+01	5.981464e-04
1.209097e+01	1.425484e-05
1.210139e+01	6.346951e-08
1.211181e+01	5.299642e-11
1.212224e+01	2.788696e-10
1.213266e+01	7.533248e-08
1.214308e+01	4.874001e-06
1.215351e+01	1.547015e-04
1.216393e+01	2.184939e-03
1.217435e+01	7.470994e-03
1.218478e+01	1.148194e-02
1.219520e+01	1.981886e-02
1.220562e+01	9.730286e-03
1.221605e+01	9.138791e-04
1.222647e+01	1.606491e-05
1.223689e+01	5.596818e-08
1.224732e+01	2.000068e-10
1.225774e+01	1.600659e-12
1.226816e+01	2.854366e-15
1.227858e+01	5.103896e-11
1.228901e+01	6.494130e-08
1.229943e+01	1.660967e-05
1.230985e+01	9.095082e-04
1.232028e+01	1.129621e-02
1.233070e+01	3.211474e-02
1.234112e+01	2.510227e-02
1.235155e+01	2.131318e-02
1.236197e+01	1.238417e-02
1.237239e+01	3.532251e-03
1.238282e+01	8.262519e-04
1.239324e+01	5.212340e-05
1.240366e+01	6.346660e-07
1.241409e+01	3.017731e-09
1.242451e+01	4.582782e-07
1.243493e+01	3.994183e-05
1.244536e+01	1.527923e-03
1.245578e+01	1.700674e-02
1.246620e+01	3.872381e-02
1.247663e+01	1.669559e-02
1.248705e+01	1.347359e-03
1.249747e+01	2.078075e-05
1.250790e+01	3.058372e-05
1.251832e+01	3.778702e-04
1.252874e+01	8.738904e-04
1.253917e+01	3.776306e-04
1.254959e+01	3.637398e-05
1.256001e+01	1.568309e-04
1.257044e+01	7.752329e-04
1.258086e+01	7.185726e-04
1.259128e+01	1.882980e-04
1.260171e+01	1.471944e-03
1.261213e+01	6.489253e-03
1.262255e+01	6.715832e-03
1.263298e+01	9.478135e-03
1.264340e+01	2.745596e-02
1.265382e+01	1.858601e-02
1.266425e+01	2.394933e-03
1.267467e+01	2.643473e-04
1.268509e+01	6.475627e-04
1.269551e+01	2.158320e-03
1.270594e+01	2.277200e-03
1.271636e+01	1.061665e-03
1.272678e+01	2.709694e-03
1.273721e+01	3.325428e-03
1.274763e+01	1.459356e-03
1.275805e+01	6.797793e-04
1.276848e+01	4.878543e-03
1.277890e+01	2.990962e-02
1.278932e+01	4.047020e-02
1.279975e+01	3.068201e-02
1.281017e+01	3.339297e-02
1.282059e+01	1.727612e-02
1.283102e+01	4.185581e-03
1.284144e+01	4.201615e-04
1.285186e+01	1.901312e-03
1.286229e+01	4.592536e-03
1.287271e+01	2.235270e-03
1.288313e+01	1.888663e-03
1.289356e+01	1.125095e-02
1.290398e+01	1.415975e-02
1.291440e+01	4.631930e-03
1.292483e+01	1.239527e-02
1.293525e+01	2.362807e-02
1.294567e+01	9.831757e-03
1.295610e+01	2.725381e-03
1.296652e+01	1.907467e-02
1.297694e+01	3.767030e-02
1.298737e+01	1.400555e-02
1.299779e+01	1.164241e-03
1.300821e+01	2.570621e-04
1.301864e+01	2.215123e-03
1.302906e+01	1.252313e-02
1.303948e+01	1.953591e-02
1.304991e+01	2.421816e-02
1.306033e+01	2.911657e-02
1.307075e+01	1.274409e-02
1.308117e+01	4.000069e-03
1.309160e+01	4.819212e-03
1.310202e+01	6.505490e-03
1.311244e+01	3.217854e-03
1.312287e+01	9.996691e-03
1.313329e+01	2.166684e-02
1.314371e+01	1.831139e-02
1.315414e+01	4.200247e-03
1.316456e+01	5.717231e-03
1.317498e+01	3.115622e-02
1.318541e+01	4.248977e-02
1.319583e+01	1.541057e-02
1.320625e+01	1.904104e-03
1.321668e+01	7.473515e-03
1.322710e+01	1.987418e-02
1.323752e+01	9.942631e-03
1.324795e+01	9.354006e-04
1.325837e+01	1.244955e-04
1.326879e+01	5.372419e-04
1.327922e+01	5.326362e-04
1.328964e+01	1.105432e-03
1.330006e+01	8.733564e-03
1.331049e+01	2.422465e-02
1.332091e+01	2.951593e-02
1.333133e+01	1.062354e-02
1.334176e+01	9.298423e-03
1.335218e+01	2.271903e-02
1.336260e+01	1.154142e-02
1.337303e+01	5.153643e-03
1.338345e+01	1.661063e-02
1.339387e+01	2.194793e-02
1.340430e+01	1.715763e-02
1.341472e+01	2.321554e-02
1.342514e+01	1.504603e-02
1.343557e+01	2.410101e-03
1.344599e+01	3.739766e-04
1.345641e+01	2.540599e-03
1.346684e+01	4.386363e-03
1.347726e+01	1.873641e-03
1.348768e+01	3.069324e-04
1.349810e+01	1.713572e-05
1.350853e+01	2.197011e-07
1.351895e+01	1.744490e-06
1.352937e+01	9.522699e-05
1.353980e+01	9.854006e-04
1.355022e+01	1.926522e-03
1.356064e+01	8.773300e-04
1.357107e+01	3.278262e-03
1.358149e+01	1.179334e-02
1.359191e+01	8.055722e-03
1.360234e+01	1.028375e-03
1.361276e+01	2.621760e-05
1.362318e+01	6.386869e-05
1.363361e+01	5.421147e-04
1.364403e+01	1.154805e-03
1.365445e+01	6.649850e-04
1.366488e+01	1.370589e-04
1.367530e+01	6.360772e-05
1.368572e+01	2.427817e-05
1.369615e+01	4.457321e-04
1.370657e+01	5.827039e-03
1.371699e+01	2.333385e-02
1.372742e+01	3.367266e-02
1.373784e+01	1.511220e-02
1.374826e+01	2.339149e-02
1.375869e+01	4.406619e-02
1.376911e+01	1.631424e-02
1.377953e+01	1.130295e-03
1.378996e+01	1.606059e-05
1.380038e+01	7.031400e-05
1.381080e+01	6.582224e-04
1.382123e+01	1.206723e-03
1.383165e+01	4.863515e-04
1.384207e+01	3.482795e-04
1.385250e+01	1.305390e-03
1.386292e+01	2.912466e-03
1.387334e+01	7.055530e-03
1.388377e+01	5.385561e-03
1.389419e+01	7.983318e-04
1.390461e+01	2.501000e-05
1.391503e+01	2.004669e-04
1.392546e+01	3.938526e-03
1.393588e+01	1.630266e-02
1.394630e+01	1.301019e-02
1.395673e+01	2.002055e-03
1.396715e+01	8.643248e-05
1.397757e+01	1.363929e-04
1.398800e+01	2.579848e-04
1.399842e+01	1.993142e-03
1.400884e+01	1.326510e-02
1.401927e+01	2.611864e-02
1.402969e+01	1.161137e-02
1.404011e+01	2.313532e-03
1.405054e+01	4.717081e-03
1.406096e+01	3.507616e-03
1.407138e+01	4.759246e-03
1.408181e+01	1.173286e-02
1.409223e+01	6.265400e-03
1.410265e+01	5.859597e-03
1.411308e+01	1.430041e-02
1.412350e+01	7.237597e-03
1.413392e+01	1.592519e-03
1.414435e+01	3.670028e-03
1.415477e+01	3.633746e-03
1.416519e+01	1.350070e-03
1.417562e+01	7.496254e-04
1.418604e+01	2.525884e-03
1.419646e+01	2.061705e-03
1.420689e+01	6.884698e-04
1.421731e+01	7.356808e-04
1.422773e+01	3.559982e-03
1.423816e+01	9.420999e-03
1.424858e+01	8.347291e-03
1.425900e+01	1.412111e-02
1.426943e+01	1.127350e-02
1.427985e+01	1.195243e-02
1.429027e+01	1.765847e-02
1.430069e+01	2.191925e-02
1.431112e+01	1.202325e-02
1.432154e+01	8.339659e-03
1.433196e+01	2.624016e-02
1.434239e+01	1.940505e-02
1.435281e+01	3.258906e-03
1.436323e+01	1.272647e-03
1.437366e+01	1.680696e-03
1.438408e+01	4.592187e-04
1.439450e+01	2.513886e-05
1.440493e+01	1.643479e-04
1.441535e+01	3.099086e-03
1.442577e+01	1.136033e-02
1.443620e+01	8.695656e-03
1.444662e+01	9.570113e-03
1.445704e+01	2.447423e-02
1.446747e+01	2.289396e-02
1.447789e+01	1.648073e-02
1.448831e+01	9.111568e-03
1.449874e+01	5.787619e-03
1.450916e+01	1.180256e-03
1.451958e+01	5.335220e-05
1.453001e+01	5.678267e-07
1.454043e+01	5.947072e-06
1.455085e+01	1.174164e-04
1.456128e+01	5.648011e-04
1.457170e+01	3.477608e-03
1.458212e+01	1.360435e-02
1.459255e+01	1.079000e-02
1.460297e+01	1.605867e-03
1.461339e+01	1.399904e-04
1.462382e+01	8.404732e-04
1.463424e+01	3.541727e-03
1.464466e+01	5.206195e-03
1.465509e+01	1.626907e-03
1.466551e+01	1.097543e-04
1.467593e+01	5.633211e-04
1.468636e+01	5.015380e-03
1.469678e+01	8.706118e-03
1.470720e+01	3.292993e-03
1.471762e+01	7.530164e-04
1.472805e+01	4.428564e-04
1.473847e+01	1.891709e-04
1.474889e+01	1.262727e-03
1.475932e+01	9.074440e-03
1.476974e+01	2.573431e-02
1.478016e+01	3.385749e-02
1.479059e+01	1.546071e-02
1.480101e+01	1.926005e-03
1.481143e+01	2.852625e-03
1.482186e+01	1.172285e-02
1.483228e+01	1.078245e-02
1.484270e+01	6.176379e-03
1.485313e+01	4.586230e-03
1.486355e+01	7.176517e-03
1.487397e+01	1.236523e-02
1.488440e+01	5.155828e-03
1.489482e+01	3.831336e-03
1.490524e+01	7.349285e-03
1.491567e+01	8.641270e-03
1.492609e+01	5.810018e-03
1.493651e+01	6.956014e-03
1.494694e+01	2.190808e-02
1.495736e+01	1.566666e-02
1.496778e+01	3.919681e-03
1.497821e+01	1.056581e-03
1.498863e+01	9.522434e-05
1.499905e+01	1.669265e-06
1.500000e+01	1.063687e-06