File: cif_pxrd_calculator/txt/iq/li0.5tio2_Imma_36449.txt
# Q [Å^-1]	I_scaled [a.u.]
0.000000e+00	0.000000e+00
5.516321e-03	0.000000e+00
1.103264e-02	0.000000e+00
1.654896e-02	0.000000e+00
2.206528e-02	0.000000e+00
2.758161e-02	0.000000e+00
3.309793e-02	0.000000e+00
3.861425e-02	0.000000e+00
4.413057e-02	0.000000e+00
4.964689e-02	0.000000e+00
5.516321e-02	0.000000e+00
6.067952e-02	0.000000e+00
6.619584e-02	0.000000e+00
7.171216e-02	0.000000e+00
7.722848e-02	0.000000e+00
8.274479e-02	0.000000e+00
8.826111e-02	0.000000e+00
9.377742e-02	0.000000e+00
9.929374e-02	0.000000e+00
1.048101e-01	0.000000e+00
1.103264e-01	0.000000e+00
1.158427e-01	0.000000e+00
1.213590e-01	0.000000e+00
1.268753e-01	0.000000e+00
1.323916e-01	0.000000e+00
1.379079e-01	0.000000e+00
1.434242e-01	0.000000e+00
1.489405e-01	0.000000e+00
1.544568e-01	0.000000e+00
1.599731e-01	0.000000e+00
1.654894e-01	0.000000e+00
1.710057e-01	0.000000e+00
1.765220e-01	0.000000e+00
1.820383e-01	0.000000e+00
1.875546e-01	0.000000e+00
1.930709e-01	0.000000e+00
1.985872e-01	0.000000e+00
2.041035e-01	0.000000e+00
2.096198e-01	0.000000e+00
2.151361e-01	0.000000e+00
2.206524e-01	0.000000e+00
2.261686e-01	0.000000e+00
2.316849e-01	0.000000e+00
2.372012e-01	0.000000e+00
2.427175e-01	0.000000e+00
2.482338e-01	0.000000e+00
2.537500e-01	0.000000e+00
2.592663e-01	0.000000e+00
2.647826e-01	0.000000e+00
2.702988e-01	0.000000e+00
2.758151e-01	0.000000e+00
2.813314e-01	0.000000e+00
2.868476e-01	0.000000e+00
2.923639e-01	0.000000e+00
2.978802e-01	0.000000e+00
3.033964e-01	0.000000e+00
3.089127e-01	0.000000e+00
3.144289e-01	0.000000e+00
3.199452e-01	0.000000e+00
3.254614e-01	0.000000e+00
3.309776e-01	0.000000e+00
3.364939e-01	0.000000e+00
3.420101e-01	0.000000e+00
3.475263e-01	0.000000e+00
3.530426e-01	0.000000e+00
3.585588e-01	0.000000e+00
3.640750e-01	0.000000e+00
3.695912e-01	0.000000e+00
3.751075e-01	0.000000e+00
3.806237e-01	0.000000e+00
3.861399e-01	0.000000e+00
3.916561e-01	0.000000e+00
3.971723e-01	0.000000e+00
4.026885e-01	0.000000e+00
4.082047e-01	0.000000e+00
4.137209e-01	0.000000e+00
4.192371e-01	0.000000e+00
4.247533e-01	0.000000e+00
4.302695e-01	0.000000e+00
4.357856e-01	0.000000e+00
4.413018e-01	0.000000e+00
4.468180e-01	0.000000e+00
4.523342e-01	0.000000e+00
4.578503e-01	0.000000e+00
4.633665e-01	0.000000e+00
4.688826e-01	0.000000e+00
4.743988e-01	0.000000e+00
4.799149e-01	0.000000e+00
4.854311e-01	0.000000e+00
4.909472e-01	0.000000e+00
4.964634e-01	0.000000e+00
5.019795e-01	0.000000e+00
5.074956e-01	0.000000e+00
5.130118e-01	0.000000e+00
5.185279e-01	0.000000e+00
5.240440e-01	0.000000e+00
5.295601e-01	0.000000e+00
5.350762e-01	0.000000e+00
5.405923e-01	0.000000e+00
5.461084e-01	0.000000e+00
5.516245e-01	0.000000e+00
5.571406e-01	0.000000e+00
5.626567e-01	0.000000e+00
5.681728e-01	0.000000e+00
5.736889e-01	0.000000e+00
5.792049e-01	0.000000e+00
5.847210e-01	0.000000e+00
5.902371e-01	0.000000e+00
5.957531e-01	0.000000e+00
6.012692e-01	0.000000e+00
6.067852e-01	0.000000e+00
6.123013e-01	0.000000e+00
6.178173e-01	0.000000e+00
6.233333e-01	0.000000e+00
6.288494e-01	0.000000e+00
6.343654e-01	0.000000e+00
6.398814e-01	0.000000e+00
6.453974e-01	0.000000e+00
6.509134e-01	0.000000e+00
6.564294e-01	0.000000e+00
6.619454e-01	0.000000e+00
6.674614e-01	1.894392e-40
6.729774e-01	2.650498e-37
6.784934e-01	6.928407e-35
6.840093e-01	3.383665e-33
6.895253e-01	3.087377e-32
6.950413e-01	5.263080e-32
7.005572e-01	1.676249e-32
7.060732e-01	9.974362e-34
7.115891e-01	1.108868e-35
7.171051e-01	2.303154e-38
7.226210e-01	8.937459e-42
7.281369e-01	0.000000e+00
7.336528e-01	0.000000e+00
7.391688e-01	0.000000e+00
7.446847e-01	0.000000e+00
7.502006e-01	0.000000e+00
7.557165e-01	0.000000e+00
7.612323e-01	0.000000e+00
7.667482e-01	0.000000e+00
7.722641e-01	0.000000e+00
7.777800e-01	0.000000e+00
7.832958e-01	0.000000e+00
7.888117e-01	0.000000e+00
7.943276e-01	0.000000e+00
7.998434e-01	0.000000e+00
8.053592e-01	0.000000e+00
8.108751e-01	0.000000e+00
8.163909e-01	0.000000e+00
8.219067e-01	0.000000e+00
8.274225e-01	0.000000e+00
8.329383e-01	0.000000e+00
8.384541e-01	0.000000e+00
8.439699e-01	0.000000e+00
8.494857e-01	0.000000e+00
8.550015e-01	0.000000e+00
8.605172e-01	0.000000e+00
8.660330e-01	0.000000e+00
8.715488e-01	0.000000e+00
8.770645e-01	0.000000e+00
8.825803e-01	0.000000e+00
8.880960e-01	0.000000e+00
8.936117e-01	0.000000e+00
8.991274e-01	0.000000e+00
9.046431e-01	0.000000e+00
9.101588e-01	0.000000e+00
9.156745e-01	0.000000e+00
9.211902e-01	0.000000e+00
9.267059e-01	0.000000e+00
9.322216e-01	0.000000e+00
9.377373e-01	0.000000e+00
9.432529e-01	0.000000e+00
9.487686e-01	0.000000e+00
9.542842e-01	0.000000e+00
9.597998e-01	0.000000e+00
9.653155e-01	0.000000e+00
9.708311e-01	0.000000e+00
9.763467e-01	0.000000e+00
9.818623e-01	0.000000e+00
9.873779e-01	0.000000e+00
9.928935e-01	0.000000e+00
9.984091e-01	0.000000e+00
1.003925e+00	0.000000e+00
1.009440e+00	0.000000e+00
1.014956e+00	0.000000e+00
1.020471e+00	0.000000e+00
1.025987e+00	0.000000e+00
1.031502e+00	0.000000e+00
1.037018e+00	0.000000e+00
1.042533e+00	0.000000e+00
1.048049e+00	0.000000e+00
1.053564e+00	0.000000e+00
1.059080e+00	0.000000e+00
1.064595e+00	0.000000e+00
1.070111e+00	0.000000e+00
1.075626e+00	0.000000e+00
1.081142e+00	0.000000e+00
1.086657e+00	0.000000e+00
1.092173e+00	0.000000e+00
1.097688e+00	0.000000e+00
1.103203e+00	0.000000e+00
1.108719e+00	0.000000e+00
1.114234e+00	0.000000e+00
1.119750e+00	0.000000e+00
1.125265e+00	0.000000e+00
1.130780e+00	0.000000e+00
1.136296e+00	0.000000e+00
1.141811e+00	0.000000e+00
1.147326e+00	0.000000e+00
1.152842e+00	0.000000e+00
1.158357e+00	0.000000e+00
1.163872e+00	0.000000e+00
1.169388e+00	0.000000e+00
1.174903e+00	0.000000e+00
1.180418e+00	0.000000e+00
1.185933e+00	0.000000e+00
1.191449e+00	0.000000e+00
1.196964e+00	0.000000e+00
1.202479e+00	0.000000e+00
1.207994e+00	0.000000e+00
1.213510e+00	0.000000e+00
1.219025e+00	0.000000e+00
1.224540e+00	0.000000e+00
1.230055e+00	0.000000e+00
1.235570e+00	0.000000e+00
1.241086e+00	0.000000e+00
1.246601e+00	0.000000e+00
1.252116e+00	0.000000e+00
1.257631e+00	0.000000e+00
1.263146e+00	0.000000e+00
1.268661e+00	0.000000e+00
1.274176e+00	0.000000e+00
1.279692e+00	0.000000e+00
1.285207e+00	0.000000e+00
1.290722e+00	0.000000e+00
1.296237e+00	0.000000e+00
1.301752e+00	0.000000e+00
1.307267e+00	0.000000e+00
1.312782e+00	0.000000e+00
1.318297e+00	0.000000e+00
1.323812e+00	0.000000e+00
1.329327e+00	0.000000e+00
1.334842e+00	0.000000e+00
1.340357e+00	0.000000e+00
1.345872e+00	0.000000e+00
1.351387e+00	0.000000e+00
1.356902e+00	0.000000e+00
1.362417e+00	2.421112e-10
1.367932e+00	2.496943e-07
1.373447e+00	4.811167e-05
1.378961e+00	1.731971e-03
1.384476e+00	1.164873e-02
1.389991e+00	1.463744e-02
1.395506e+00	3.436368e-03
1.401021e+00	1.507240e-04
1.406536e+00	1.235131e-06
1.412051e+00	1.891003e-09
1.417565e+00	5.409030e-13
1.423080e+00	0.000000e+00
1.428595e+00	0.000000e+00
1.434110e+00	0.000000e+00
1.439625e+00	0.000000e+00
1.445139e+00	0.000000e+00
1.450654e+00	0.000000e+00
1.456169e+00	0.000000e+00
1.461684e+00	0.000000e+00
1.467198e+00	0.000000e+00
1.472713e+00	0.000000e+00
1.478228e+00	0.000000e+00
1.483742e+00	0.000000e+00
1.489257e+00	0.000000e+00
1.494772e+00	0.000000e+00
1.500286e+00	0.000000e+00
1.505801e+00	0.000000e+00
1.511316e+00	4.485708e-43
1.516830e+00	1.567042e-39
1.522345e+00	1.022771e-36
1.527859e+00	1.247166e-34
1.533374e+00	2.841309e-33
1.538888e+00	1.209374e-32
1.544403e+00	9.617255e-33
1.549918e+00	1.428860e-33
1.555432e+00	3.966217e-35
1.560947e+00	2.056891e-37
1.566461e+00	1.992941e-40
1.571975e+00	0.000000e+00
1.577490e+00	0.000000e+00
1.583004e+00	0.000000e+00
1.588519e+00	0.000000e+00
1.594033e+00	0.000000e+00
1.599548e+00	0.000000e+00
1.605062e+00	0.000000e+00
1.610576e+00	0.000000e+00
1.616091e+00	0.000000e+00
1.621605e+00	4.120305e-42
1.627120e+00	9.109258e-39
1.632634e+00	3.762572e-36
1.638148e+00	2.903587e-34
1.643662e+00	4.186325e-33
1.649177e+00	1.127663e-32
1.654691e+00	5.675103e-33
1.660205e+00	1.202802e-11
1.665720e+00	4.894134e-08
1.671234e+00	3.720537e-05
1.676748e+00	5.284252e-03
1.682262e+00	1.402199e-01
1.687776e+00	6.951586e-01
1.693291e+00	6.438820e-01
1.698805e+00	1.114235e-01
1.704319e+00	3.602430e-03
1.709833e+00	2.176018e-05
1.715347e+00	2.455712e-08
1.720861e+00	0.000000e+00
1.726375e+00	0.000000e+00
1.731889e+00	0.000000e+00
1.737403e+00	0.000000e+00
1.742918e+00	0.000000e+00
1.748432e+00	0.000000e+00
1.753946e+00	0.000000e+00
1.759460e+00	1.455192e-11
1.764974e+00	5.921092e-08
1.770488e+00	4.501234e-05
1.776002e+00	6.393071e-03
1.781515e+00	1.696429e-01
1.787029e+00	8.410268e-01
1.792543e+00	7.789906e-01
1.798057e+00	1.348040e-01
1.803571e+00	4.358344e-03
1.809085e+00	2.632621e-05
1.814599e+00	2.971005e-08
1.820113e+00	0.000000e+00
1.825627e+00	0.000000e+00
1.831140e+00	0.000000e+00
1.836654e+00	0.000000e+00
1.842168e+00	0.000000e+00
1.847682e+00	0.000000e+00
1.853195e+00	0.000000e+00
1.858709e+00	0.000000e+00
1.864223e+00	0.000000e+00
1.869737e+00	0.000000e+00
1.875250e+00	0.000000e+00
1.880764e+00	0.000000e+00
1.886278e+00	0.000000e+00
1.891791e+00	0.000000e+00
1.897305e+00	0.000000e+00
1.902819e+00	0.000000e+00
1.908332e+00	0.000000e+00
1.913846e+00	0.000000e+00
1.919359e+00	0.000000e+00
1.924873e+00	0.000000e+00
1.930386e+00	0.000000e+00
1.935900e+00	0.000000e+00
1.941413e+00	0.000000e+00
1.946927e+00	0.000000e+00
1.952440e+00	0.000000e+00
1.957954e+00	0.000000e+00
1.963467e+00	0.000000e+00
1.968981e+00	0.000000e+00
1.974494e+00	0.000000e+00
1.980007e+00	0.000000e+00
1.985521e+00	0.000000e+00
1.991034e+00	0.000000e+00
1.996547e+00	0.000000e+00
2.002061e+00	0.000000e+00
2.007574e+00	0.000000e+00
2.013087e+00	0.000000e+00
2.018601e+00	0.000000e+00
2.024114e+00	0.000000e+00
2.029627e+00	0.000000e+00
2.035140e+00	0.000000e+00
2.040654e+00	0.000000e+00
2.046167e+00	4.846103e-41
2.051680e+00	9.199093e-38
2.057193e+00	3.264647e-35
2.062706e+00	2.181350e-33
2.068219e+00	2.960953e-32
2.073732e+00	1.376765e-31
2.079246e+00	4.025516e-31
2.084759e+00	3.502555e-31
2.090272e+00	6.027067e-32
2.095785e+00	1.947649e-33
2.101298e+00	1.176410e-35
2.106811e+00	1.327615e-38
2.112324e+00	0.000000e+00
2.117837e+00	0.000000e+00
2.123350e+00	0.000000e+00
2.128863e+00	1.900444e-40
2.134375e+00	3.097026e-37
2.139888e+00	9.429369e-35
2.145401e+00	5.363752e-33
2.150914e+00	5.700367e-32
2.156427e+00	1.131840e-31
2.161940e+00	4.198708e-32
2.167453e+00	2.910009e-33
2.172965e+00	3.768089e-35
2.178478e+00	9.115827e-38
2.183991e+00	4.120208e-41
2.189504e+00	0.000000e+00
2.195016e+00	0.000000e+00
2.200529e+00	0.000000e+00
2.206042e+00	0.000000e+00
2.211554e+00	0.000000e+00
2.217067e+00	0.000000e+00
2.222580e+00	0.000000e+00
2.228092e+00	3.947425e-75
2.233605e+00	1.378997e-71
2.239117e+00	9.000389e-69
2.244630e+00	1.097507e-66
2.250142e+00	2.500353e-65
2.255655e+00	1.064250e-64
2.261168e+00	8.463188e-65
2.266680e+00	1.257397e-65
2.272192e+00	3.490272e-67
2.277705e+00	1.810065e-69
2.283217e+00	1.753789e-72
2.288730e+00	0.000000e+00
2.294242e+00	0.000000e+00
2.299754e+00	0.000000e+00
2.305267e+00	0.000000e+00
2.310779e+00	0.000000e+00
2.316291e+00	0.000000e+00
2.321804e+00	0.000000e+00
2.327316e+00	0.000000e+00
2.332828e+00	3.971175e-42
2.338340e+00	1.191068e-38
2.343853e+00	6.674250e-36
2.349365e+00	6.987413e-34
2.354877e+00	1.366717e-32
2.360389e+00	4.994463e-32
2.365901e+00	3.409944e-32
2.371413e+00	4.349645e-33
2.376926e+00	1.036594e-34
2.382438e+00	4.615423e-37
2.387950e+00	3.839393e-40
2.393462e+00	0.000000e+00
2.398974e+00	0.000000e+00
2.404486e+00	0.000000e+00
2.409998e+00	0.000000e+00
2.415510e+00	0.000000e+00
2.421022e+00	0.000000e+00
2.426533e+00	0.000000e+00
2.432045e+00	0.000000e+00
2.437557e+00	0.000000e+00
2.443069e+00	0.000000e+00
2.448581e+00	0.000000e+00
2.454093e+00	0.000000e+00
2.459605e+00	0.000000e+00
2.465116e+00	0.000000e+00
2.470628e+00	0.000000e+00
2.476140e+00	0.000000e+00
2.481651e+00	0.000000e+00
2.487163e+00	0.000000e+00
2.492675e+00	0.000000e+00
2.498186e+00	0.000000e+00
2.503698e+00	0.000000e+00
2.509210e+00	0.000000e+00
2.514721e+00	0.000000e+00
2.520233e+00	0.000000e+00
2.525744e+00	0.000000e+00
2.531256e+00	0.000000e+00
2.536767e+00	0.000000e+00
2.542279e+00	0.000000e+00
2.547790e+00	0.000000e+00
2.553302e+00	0.000000e+00
2.558813e+00	0.000000e+00
2.564325e+00	1.514786e-09
2.569836e+00	1.819605e-06
2.575347e+00	4.083673e-04
2.580859e+00	1.712273e-02
2.586370e+00	1.341353e-01
2.591881e+00	1.963186e-01
2.597393e+00	5.368192e-02
2.602904e+00	2.742475e-03
2.608415e+00	2.617614e-05
2.613926e+00	4.667846e-08
2.619437e+00	1.555162e-11
2.624949e+00	4.499657e-09
2.630460e+00	3.984472e-06
2.635971e+00	6.594258e-04
2.641482e+00	2.044404e-02
2.646993e+00	1.206981e-01
2.652504e+00	1.509427e-01
2.658015e+00	6.076345e-02
2.663526e+00	1.058433e-02
2.669037e+00	4.982955e-04
2.674548e+00	4.700313e-06
2.680059e+00	8.368112e-09
2.685570e+00	2.787232e-12
2.691081e+00	0.000000e+00
2.696592e+00	0.000000e+00
2.702103e+00	0.000000e+00
2.707613e+00	0.000000e+00
2.713124e+00	0.000000e+00
2.718635e+00	0.000000e+00
2.724146e+00	0.000000e+00
2.729657e+00	0.000000e+00
2.735167e+00	0.000000e+00
2.740678e+00	0.000000e+00
2.746189e+00	8.134921e-12
2.751699e+00	3.310053e-08
2.757210e+00	2.516313e-05
2.762721e+00	3.573902e-03
2.768231e+00	9.483502e-02
2.773742e+00	4.701571e-01
2.779252e+00	4.354772e-01
2.784763e+00	7.535914e-02
2.790273e+00	2.436434e-03
2.795784e+00	1.471708e-05
2.801294e+00	1.660874e-08
2.806805e+00	0.000000e+00
2.812315e+00	0.000000e+00
2.817825e+00	0.000000e+00
2.823336e+00	0.000000e+00
2.828846e+00	0.000000e+00
2.834356e+00	0.000000e+00
2.839867e+00	0.000000e+00
2.845377e+00	0.000000e+00
2.850887e+00	0.000000e+00
2.856397e+00	0.000000e+00
2.861907e+00	0.000000e+00
2.867418e+00	0.000000e+00
2.872928e+00	0.000000e+00
2.878438e+00	0.000000e+00
2.883948e+00	0.000000e+00
2.889458e+00	0.000000e+00
2.894968e+00	0.000000e+00
2.900478e+00	0.000000e+00
2.905988e+00	0.000000e+00
2.911498e+00	0.000000e+00
2.917008e+00	0.000000e+00
2.922518e+00	0.000000e+00
2.928028e+00	0.000000e+00
2.933538e+00	0.000000e+00
2.939048e+00	0.000000e+00
2.944557e+00	0.000000e+00
2.950067e+00	0.000000e+00
2.955577e+00	0.000000e+00
2.961087e+00	0.000000e+00
2.966596e+00	0.000000e+00
2.972106e+00	0.000000e+00
2.977616e+00	0.000000e+00
2.983126e+00	0.000000e+00
2.988635e+00	0.000000e+00
2.994145e+00	0.000000e+00
2.999654e+00	0.000000e+00
3.005164e+00	0.000000e+00
3.010673e+00	0.000000e+00
3.016183e+00	0.000000e+00
3.021692e+00	0.000000e+00
3.027202e+00	0.000000e+00
3.032711e+00	0.000000e+00
3.038221e+00	0.000000e+00
3.043730e+00	1.159445e-40
3.049239e+00	2.200756e-37
3.054749e+00	3.970816e-10
3.060258e+00	7.537052e-07
3.065767e+00	2.672830e-04
3.071277e+00	1.770881e-02
3.076786e+00	2.192075e-01
3.082295e+00	5.069555e-01
3.087804e+00	2.190445e-01
3.093313e+00	1.768247e-02
3.098823e+00	2.666869e-04
3.104332e+00	7.514648e-07
3.109841e+00	3.956068e-10
3.115350e+00	0.000000e+00
3.120859e+00	0.000000e+00
3.126368e+00	0.000000e+00
3.131877e+00	7.838155e-42
3.137386e+00	1.487769e-38
3.142895e+00	5.276007e-36
3.148404e+00	3.495617e-34
3.153912e+00	4.327476e-33
3.159421e+00	1.012448e-32
3.164930e+00	1.006138e-32
3.170439e+00	5.270072e-32
3.175948e+00	8.924967e-32
3.181456e+00	2.842364e-32
3.186965e+00	1.691321e-33
3.192474e+00	1.880273e-35
3.197982e+00	3.905386e-38
3.203491e+00	1.019401e-40
3.209000e+00	1.042488e-37
3.214508e+00	2.339617e-35
3.220017e+00	9.809951e-34
3.225525e+00	7.684879e-33
3.231034e+00	1.124748e-32
3.236542e+00	3.075544e-33
3.242051e+00	1.571218e-34
3.247559e+00	1.499683e-36
3.253068e+00	2.674302e-39
3.258576e+00	8.909833e-43
3.264084e+00	0.000000e+00
3.269593e+00	5.904233e-12
3.275101e+00	2.402399e-08
3.280609e+00	1.826312e-05
3.286117e+00	2.593898e-03
3.291626e+00	6.883019e-02
3.297134e+00	3.412347e-01
3.302642e+00	3.160644e-01
3.308150e+00	5.469481e-02
3.313658e+00	1.768336e-03
3.319166e+00	1.068149e-05
3.324674e+00	1.205443e-08
3.330182e+00	0.000000e+00
3.335690e+00	0.000000e+00
3.341198e+00	0.000000e+00
3.346706e+00	1.329762e-40
3.352214e+00	1.122000e-12
3.357722e+00	2.480543e-09
3.363230e+00	1.024586e-06
3.368737e+00	7.906760e-05
3.374245e+00	1.139979e-03
3.379753e+00	3.070740e-03
3.385261e+00	1.545388e-03
3.390768e+00	1.453048e-04
3.396276e+00	2.552530e-06
3.401784e+00	8.377410e-09
3.407291e+00	5.136850e-12
3.412799e+00	0.000000e+00
3.418307e+00	0.000000e+00
3.423814e+00	0.000000e+00
3.429322e+00	0.000000e+00
3.434829e+00	0.000000e+00
3.440337e+00	3.090270e-42
3.445844e+00	1.257413e-38
3.451351e+00	9.558897e-36
3.456859e+00	1.357643e-33
3.462366e+00	3.602565e-32
3.467873e+00	1.786019e-31
3.473381e+00	1.654278e-31
3.478888e+00	2.862804e-32
3.484395e+00	9.896278e-34
3.489902e+00	9.295172e-34
3.495410e+00	2.488770e-33
3.500917e+00	1.252501e-33
3.506424e+00	1.177662e-34
3.511931e+00	2.068767e-36
3.517438e+00	6.789699e-39
3.522945e+00	4.163299e-42
3.528452e+00	0.000000e+00
3.533959e+00	4.040135e-12
3.539466e+00	1.643908e-08
3.544973e+00	1.249704e-05
3.550480e+00	1.774946e-03
3.555986e+00	4.709901e-02
3.561493e+00	2.335188e-01
3.567000e+00	2.175863e-01
3.572507e+00	5.389339e-02
3.578014e+00	4.018683e-02
3.583520e+00	1.745879e-02
3.589027e+00	1.486655e-03
3.594534e+00	2.427731e-05
3.600040e+00	7.667063e-08
3.605547e+00	4.723636e-11
3.611053e+00	0.000000e+00
3.616560e+00	6.495042e-41
3.622066e+00	5.751005e-38
3.627573e+00	9.513792e-36
3.633079e+00	2.940436e-34
3.638586e+00	1.697923e-33
3.644092e+00	1.831776e-33
3.649598e+00	3.692112e-34
3.655105e+00	1.390355e-35
3.660611e+00	9.781928e-38
3.666117e+00	1.285794e-40
3.671623e+00	3.157669e-44
3.677129e+00	2.515046e-12
3.682636e+00	1.023358e-08
3.688142e+00	7.779601e-06
3.693648e+00	1.104931e-03
3.699154e+00	2.931982e-02
3.704660e+00	1.453569e-01
3.710166e+00	1.346350e-01
3.715672e+00	2.329853e-02
3.721178e+00	7.532641e-04
3.726684e+00	4.550029e-06
3.732190e+00	5.134867e-09
3.737696e+00	1.185886e-35
3.743201e+00	8.086151e-36
3.748707e+00	8.443450e-34
3.754213e+00	1.651513e-32
3.759719e+00	6.035209e-32
3.765224e+00	4.120508e-32
3.770730e+00	4.940410e-10
3.776236e+00	5.934563e-07
3.781741e+00	1.331872e-04
3.787247e+00	5.584505e-03
3.792752e+00	4.374767e-02
3.798258e+00	6.402849e-02
3.803763e+00	1.750813e-02
3.809269e+00	8.944466e-04
3.814774e+00	8.537449e-06
3.820280e+00	4.198991e-07
3.825785e+00	1.435081e-04
3.831290e+00	9.508114e-03
3.836796e+00	1.176957e-01
3.842301e+00	2.721917e-01
3.847806e+00	1.176081e-01
3.853311e+00	9.493972e-03
3.858816e+00	1.431880e-04
3.864321e+00	4.034723e-07
3.869827e+00	2.124070e-10
3.875332e+00	1.132249e-38
3.880837e+00	4.604441e-36
3.886342e+00	4.590837e-34
3.891847e+00	1.320455e-32
3.897352e+00	9.916950e-32
3.902856e+00	1.598461e-31
3.908361e+00	5.016628e-32
3.913866e+00	2.973885e-33
3.919371e+00	3.302964e-35
3.924876e+00	6.858695e-38
3.930380e+00	2.661319e-41
3.935885e+00	0.000000e+00
3.941390e+00	0.000000e+00
3.946895e+00	0.000000e+00
3.952399e+00	0.000000e+00
3.957904e+00	0.000000e+00
3.963408e+00	0.000000e+00
3.968913e+00	0.000000e+00
3.974417e+00	0.000000e+00
3.979922e+00	0.000000e+00
3.985426e+00	0.000000e+00
3.990930e+00	0.000000e+00
3.996435e+00	0.000000e+00
4.001939e+00	0.000000e+00
4.007443e+00	0.000000e+00
4.012948e+00	0.000000e+00
4.018452e+00	0.000000e+00
4.023956e+00	0.000000e+00
4.029460e+00	0.000000e+00
4.034964e+00	0.000000e+00
4.040468e+00	3.952828e-12
4.045972e+00	1.017873e-08
4.051476e+00	4.896969e-06
4.056980e+00	4.401588e-04
4.062484e+00	7.391618e-03
4.067988e+00	2.319091e-02
4.073492e+00	1.359390e-02
4.078996e+00	1.488740e-03
4.084500e+00	3.046082e-05
4.090004e+00	1.164428e-07
4.095507e+00	8.316327e-11
4.101011e+00	0.000000e+00
4.106515e+00	0.000000e+00
4.112018e+00	4.324728e-41
4.117522e+00	9.561202e-38
4.123026e+00	8.732637e-09
4.128529e+00	7.732273e-06
4.134033e+00	1.279137e-03
4.139536e+00	3.953440e-02
4.145040e+00	2.282875e-01
4.150543e+00	2.463356e-01
4.156046e+00	5.101566e-02
4.161550e+00	8.685649e-03
4.167053e+00	6.326671e-03
4.172556e+00	1.092653e-03
4.178059e+00	7.008906e-05
4.183563e+00	2.683099e-03
4.189066e+00	3.868123e-02
4.194569e+00	1.041949e-01
4.200072e+00	5.243739e-02
4.205575e+00	4.930417e-03
4.211078e+00	8.661127e-05
4.216581e+00	2.842584e-07
4.222084e+00	1.743012e-10
4.227587e+00	0.000000e+00
4.233090e+00	0.000000e+00
4.238593e+00	0.000000e+00
4.244096e+00	0.000000e+00
4.249598e+00	0.000000e+00
4.255101e+00	0.000000e+00
4.260604e+00	0.000000e+00
4.266106e+00	0.000000e+00
4.271609e+00	0.000000e+00
4.277112e+00	0.000000e+00
4.282614e+00	8.449251e-12
4.288117e+00	2.951670e-08
4.293619e+00	1.926485e-05
4.299122e+00	2.349155e-03
4.304624e+00	5.351872e-02
4.310127e+00	2.277970e-01
4.315629e+00	1.811500e-01
4.321131e+00	2.691392e-02
4.326634e+00	7.470741e-04
4.332136e+00	3.874348e-06
4.337638e+00	3.753891e-09
4.343140e+00	0.000000e+00
4.348642e+00	0.000000e+00
4.354144e+00	0.000000e+00
4.359646e+00	0.000000e+00
4.365148e+00	0.000000e+00
4.370650e+00	0.000000e+00
4.376152e+00	0.000000e+00
4.381654e+00	0.000000e+00
4.387156e+00	0.000000e+00
4.392658e+00	0.000000e+00
4.398160e+00	0.000000e+00
4.403662e+00	0.000000e+00
4.409163e+00	0.000000e+00
4.414665e+00	2.325517e-39
4.420167e+00	2.398354e-36
4.425668e+00	4.621205e-34
4.431170e+00	1.663586e-32
4.436672e+00	1.118880e-31
4.442173e+00	1.405950e-31
4.447675e+00	3.301289e-32
4.453176e+00	1.846124e-33
4.458677e+00	4.947329e-33
4.464179e+00	1.230143e-32
4.469680e+00	4.251905e-32
4.475181e+00	2.948786e-31
4.480683e+00	4.310041e-31
4.486184e+00	2.003490e-11
4.491685e+00	6.009037e-08
4.497186e+00	3.367213e-05
4.502687e+00	3.525207e-03
4.508188e+00	6.895198e-02
4.513690e+00	2.519747e-01
4.519191e+00	1.720345e-01
4.524691e+00	2.194431e-02
4.530192e+00	5.229700e-04
4.535693e+00	2.328518e-06
4.541194e+00	1.937005e-09
4.546695e+00	7.519857e-38
4.552196e+00	2.289543e-35
4.557696e+00	1.302489e-33
4.563197e+00	1.387803e-32
4.568698e+00	2.958802e-32
4.574198e+00	3.257564e-32
4.579699e+00	4.514492e-32
4.585200e+00	1.649413e-32
4.590700e+00	1.142551e-33
4.596201e+00	1.479430e-35
4.601701e+00	4.704408e-38
4.607201e+00	3.426317e-36
4.612702e+00	1.948999e-34
4.618202e+00	2.071338e-33
4.623702e+00	4.124624e-33
4.629203e+00	2.596606e-33
4.634703e+00	1.809018e-32
4.640203e+00	5.642683e-32
4.645703e+00	1.288585e-12
4.651203e+00	4.501557e-09
4.656703e+00	2.938059e-06
4.662203e+00	3.582667e-04
4.667703e+00	8.162075e-03
4.673203e+00	3.474104e-02
4.678703e+00	2.762697e-02
4.684203e+00	4.104609e-03
4.689703e+00	1.139354e-04
4.695203e+00	5.908724e-07
4.700702e+00	1.467321e-09
4.706202e+00	4.304963e-07
4.711702e+00	3.869636e-05
4.717201e+00	6.512842e-04
4.722701e+00	2.283818e-03
4.728201e+00	8.770002e-03
4.733700e+00	4.387162e-02
4.739199e+00	4.719165e-02
4.744699e+00	9.511380e-03
4.750198e+00	3.581738e-04
4.755698e+00	2.519954e-06
4.761197e+00	3.312376e-09
4.766696e+00	8.134574e-13
4.772195e+00	4.822497e-35
4.777695e+00	3.195141e-33
4.783194e+00	3.955088e-32
4.788693e+00	9.146827e-32
4.794192e+00	3.952146e-32
4.799691e+00	3.190389e-33
4.805190e+00	4.812152e-35
4.810689e+00	1.588103e-36
4.816188e+00	9.623656e-35
4.821687e+00	1.191258e-33
4.827186e+00	2.754991e-33
4.832684e+00	1.190374e-33
4.838183e+00	9.766039e-35
4.843682e+00	3.033897e-34
4.849181e+00	1.086955e-32
4.854679e+00	7.310541e-32
4.860178e+00	9.186200e-32
4.865676e+00	2.156604e-32
4.871175e+00	9.459172e-34
4.876673e+00	7.751468e-36
4.882172e+00	1.189978e-38
4.887670e+00	5.243821e-38
4.893169e+00	1.596458e-35
4.898667e+00	1.742195e-10
4.904165e+00	3.306880e-07
4.909663e+00	1.172704e-04
4.915162e+00	7.769737e-03
4.920660e+00	9.617728e-02
4.926158e+00	2.224266e-01
4.931656e+00	9.610573e-02
4.937154e+00	7.758181e-03
4.942652e+00	1.170088e-04
4.948150e+00	3.297051e-07
4.953648e+00	1.735724e-10
4.959146e+00	1.241458e-32
4.964644e+00	2.562311e-32
4.970141e+00	1.571858e-11
4.975639e+00	3.475096e-08
4.981137e+00	1.435386e-05
4.986634e+00	1.107691e-03
4.992132e+00	1.597044e-02
4.997630e+00	4.301928e-02
5.003127e+00	2.164998e-02
5.008625e+00	2.035707e-03
5.014122e+00	6.063744e-05
5.019620e+00	1.648405e-03
5.025117e+00	2.040324e-02
5.030614e+00	4.718604e-02
5.036112e+00	2.038806e-02
5.041609e+00	1.645836e-03
5.047106e+00	2.482884e-05
5.052603e+00	3.627133e-06
5.058100e+00	3.724096e-04
5.063597e+00	7.284219e-03
5.069094e+00	2.661909e-02
5.074591e+00	1.817407e-02
5.080088e+00	2.326612e-03
5.085585e+00	7.225969e-04
5.091082e+00	1.082788e-02
5.096579e+00	4.198249e-02
5.102076e+00	4.657567e-02
5.107572e+00	1.381933e-02
5.113069e+00	8.971610e-04
5.118566e+00	2.361735e-05
5.124062e+00	2.049267e-04
5.129559e+00	6.428633e-04
5.135056e+00	3.768296e-04
5.140552e+00	4.126859e-05
5.146049e+00	8.443887e-07
5.151545e+00	3.228105e-09
5.157041e+00	8.920106e-10
5.162538e+00	5.806895e-07
5.168034e+00	7.080924e-05
5.173530e+00	1.613184e-03
5.179026e+00	6.866355e-03
5.184522e+00	5.460302e-03
5.190019e+00	8.112510e-04
5.195515e+00	2.251863e-05
5.201011e+00	1.167823e-07
5.206507e+00	1.131514e-10
5.212003e+00	1.693432e-36
5.217498e+00	1.772890e-34
5.222994e+00	3.467719e-33
5.228490e+00	1.267226e-32
5.233986e+00	8.651923e-33
5.239482e+00	1.103619e-33
5.244977e+00	2.630111e-35
5.250473e+00	1.171054e-37
5.255968e+00	9.741548e-41
5.261464e+00	0.000000e+00
5.266959e+00	0.000000e+00
5.272455e+00	8.512096e-11
5.277950e+00	1.881872e-07
5.283446e+00	7.773060e-05
5.288941e+00	5.998492e-03
5.294436e+00	8.648540e-02
5.299932e+00	2.330276e-01
5.305427e+00	1.187181e-01
5.310922e+00	1.730922e-02
5.316417e+00	5.192136e-03
5.321912e+00	7.432736e-04
5.327407e+00	2.061447e-05
5.332902e+00	1.069052e-07
5.338397e+00	1.143662e-10
5.343892e+00	2.388034e-08
5.349387e+00	9.892922e-06
5.354882e+00	7.699847e-04
5.360376e+00	1.137591e-02
5.365871e+00	3.279298e-02
5.371366e+00	1.965005e-02
5.376860e+00	2.708002e-03
5.382355e+00	9.152690e-05
5.387849e+00	7.199405e-07
5.393344e+00	1.189611e-09
5.398838e+00	3.798861e-13
5.404333e+00	5.431702e-35
5.409827e+00	7.034929e-37
5.415321e+00	2.999031e-37
5.420816e+00	1.057498e-34
5.426310e+00	7.006446e-33
5.431804e+00	8.672891e-32
5.437298e+00	2.005757e-31
5.442792e+00	8.666439e-32
5.448286e+00	6.996025e-33
5.453780e+00	1.055140e-34
5.459274e+00	2.973152e-37
5.464768e+00	1.565208e-40
5.470262e+00	0.000000e+00
5.475756e+00	0.000000e+00
5.481250e+00	0.000000e+00
5.486743e+00	0.000000e+00
5.492237e+00	0.000000e+00
5.497731e+00	0.000000e+00
5.503224e+00	1.380367e-41
5.508718e+00	4.140112e-38
5.514211e+00	2.319946e-35
5.519705e+00	2.428800e-33
5.525198e+00	3.944792e-11
5.530691e+00	6.428561e-08
5.536185e+00	1.957274e-05
5.541678e+00	1.113365e-03
5.547171e+00	1.183237e-02
5.552664e+00	2.349385e-02
5.558158e+00	8.715346e-03
5.563651e+00	6.040367e-04
5.569144e+00	7.821501e-06
5.574637e+00	1.892191e-08
5.580130e+00	8.552404e-12
5.585622e+00	2.012944e-32
5.591115e+00	1.179935e-32
5.596608e+00	1.292209e-33
5.602101e+00	2.643964e-35
5.607594e+00	1.010710e-37
5.613086e+00	2.566217e-11
5.618579e+00	3.590468e-08
5.624071e+00	9.385489e-06
5.629564e+00	4.583645e-04
5.635056e+00	4.182280e-03
5.640549e+00	7.129572e-03
5.646041e+00	2.270712e-03
5.651534e+00	1.351166e-04
5.657026e+00	1.502116e-06
5.662518e+00	3.119941e-09
5.668010e+00	1.210703e-12
5.673502e+00	3.579796e-33
5.678995e+00	6.790843e-33
5.684487e+00	5.227586e-33
5.689979e+00	1.987434e-32
5.695471e+00	6.208728e-11
5.700963e+00	1.011795e-07
5.706454e+00	3.080564e-05
5.711946e+00	1.752331e-03
5.717438e+00	1.862303e-02
5.722930e+00	3.697709e-02
5.728421e+00	1.371713e-02
5.733913e+00	9.506964e-04
5.739405e+00	1.231030e-05
5.744896e+00	2.978130e-08
5.750388e+00	1.346067e-11
5.755879e+00	4.093729e-10
5.761371e+00	3.624774e-07
5.766862e+00	5.996403e-05
5.772353e+00	1.853314e-03
5.777844e+00	1.070176e-02
5.783336e+00	1.154541e-02
5.788827e+00	2.327084e-03
5.794318e+00	8.763201e-05
5.799809e+00	6.165405e-07
5.805300e+00	8.104172e-10
5.810791e+00	1.990233e-13
5.816282e+00	1.001710e-35
5.821773e+00	3.605661e-34
5.827264e+00	2.425608e-33
5.832754e+00	3.152891e-33
5.838245e+00	4.518163e-33
5.843736e+00	7.978441e-12
5.849226e+00	2.054488e-08
5.854717e+00	9.884154e-06
5.860207e+00	8.884772e-04
5.865698e+00	1.493164e-02
5.871188e+00	4.732463e-02
5.876679e+00	3.147866e-02
5.882169e+00	8.918569e-03
5.887659e+00	1.678535e-03
5.893150e+00	8.284620e-05
5.898640e+00	7.886677e-07
5.904130e+00	1.406088e-09
5.909620e+00	4.684592e-13
5.915110e+00	0.000000e+00
5.920600e+00	0.000000e+00
5.926090e+00	0.000000e+00
5.931580e+00	0.000000e+00
5.937070e+00	0.000000e+00
5.942560e+00	0.000000e+00
5.948049e+00	0.000000e+00
5.953539e+00	0.000000e+00
5.959029e+00	1.836460e-12
5.964518e+00	2.570133e-09
5.970008e+00	6.740598e-07
5.975497e+00	3.437263e-05
5.980987e+00	4.908299e-04
5.986476e+00	4.873754e-03
5.991966e+00	1.873547e-02
5.997455e+00	1.477937e-02
6.002944e+00	2.194480e-03
6.008433e+00	6.091141e-05
6.013922e+00	3.158872e-07
6.019412e+00	1.066683e-09
6.024901e+00	7.853649e-07
6.030390e+00	1.519666e-04
6.035879e+00	5.576624e-03
6.041368e+00	4.078240e-02
6.046856e+00	7.016067e-02
6.052345e+00	3.687795e-02
6.057834e+00	5.855003e-03
6.063323e+00	4.050506e-03
6.068811e+00	2.222508e-02
6.074300e+00	2.397565e-02
6.079788e+00	4.832512e-03
6.085277e+00	1.819800e-04
6.090765e+00	1.280332e-06
6.096254e+00	1.682943e-09
6.101742e+00	4.132993e-13
6.107230e+00	0.000000e+00
6.112719e+00	1.228826e-13
6.118207e+00	5.000024e-10
6.123695e+00	3.801035e-07
6.129183e+00	5.398583e-05
6.134671e+00	1.432537e-03
6.140159e+00	7.101993e-03
6.145647e+00	6.579963e-03
6.151135e+00	1.398589e-03
6.156623e+00	6.942548e-03
6.162111e+00	3.423636e-02
6.167598e+00	3.171080e-02
6.173086e+00	5.488030e-03
6.178574e+00	2.371427e-04
6.184061e+00	1.361738e-03
6.189549e+00	5.791540e-03
6.195036e+00	4.605580e-03
6.200524e+00	6.842628e-04
6.206011e+00	1.899370e-05
6.211499e+00	9.850189e-08
6.216986e+00	9.543938e-11
6.222473e+00	4.634956e-32
6.227960e+00	2.060952e-32
6.233447e+00	7.894429e-33
6.238935e+00	1.321661e-32
6.244422e+00	7.986546e-33
6.249909e+00	3.012874e-33
6.255395e+00	4.044052e-34
6.260882e+00	1.112087e-35
6.266369e+00	5.762589e-38
6.271856e+00	5.582988e-41
6.277343e+00	0.000000e+00
6.282829e+00	0.000000e+00
6.288316e+00	0.000000e+00
6.293802e+00	1.148308e-11
6.299289e+00	1.016764e-08
6.304775e+00	1.682016e-06
6.310262e+00	5.198621e-05
6.315748e+00	3.001888e-04
6.321234e+00	3.238537e-04
6.326721e+00	6.527900e-05
6.332207e+00	4.627465e-06
6.337693e+00	2.645478e-04
6.343179e+00	6.026564e-03
6.348665e+00	2.565146e-02
6.354151e+00	2.039870e-02
6.359637e+00	3.030687e-03
6.365123e+00	8.412552e-05
6.370609e+00	4.362774e-07
6.376095e+00	4.227131e-10
6.381580e+00	2.673283e-34
6.387066e+00	1.155068e-34
6.392552e+00	1.218037e-10
6.398037e+00	1.704191e-07
6.403523e+00	4.454758e-05
6.409008e+00	2.175596e-03
6.414494e+00	1.985102e-02
6.419979e+00	3.386135e-02
6.425464e+00	1.169029e-02
6.430949e+00	1.016800e-02
6.436435e+00	2.364260e-02
6.441920e+00	1.260544e-02
6.447405e+00	2.390023e-03
6.452890e+00	1.976763e-02
6.458375e+00	7.539954e-02
6.463860e+00	5.853061e-02
6.469345e+00	9.065541e-03
6.474829e+00	2.744216e-04
6.480314e+00	1.596325e-06
6.485799e+00	1.763924e-09
6.491284e+00	1.903214e-35
6.496768e+00	9.269088e-34
6.502253e+00	8.457445e-33
6.507737e+00	1.441749e-32
6.513222e+00	4.593546e-33
6.518706e+00	4.253291e-34
6.524190e+00	2.557183e-33
6.529675e+00	8.013536e-33
6.535159e+00	4.697321e-33
6.540643e+00	5.145274e-34
6.546127e+00	3.641382e-35
6.551611e+00	1.264357e-33
6.557095e+00	1.153608e-32
6.562579e+00	1.966566e-32
6.568063e+00	6.263355e-33
6.573547e+00	2.273704e-10
6.579031e+00	2.731238e-07
6.584515e+00	6.129619e-05
6.589998e+00	2.570133e-03
6.595482e+00	2.013380e-02
6.600965e+00	2.946756e-02
6.606449e+00	8.057692e-03
6.611932e+00	4.116473e-04
6.617416e+00	3.929055e-06
6.622899e+00	7.072247e-09
6.628382e+00	9.204099e-08
6.633866e+00	2.407028e-05
6.639349e+00	1.180223e-03
6.644832e+00	1.113069e-02
6.650315e+00	2.419248e-02
6.655798e+00	2.176046e-02
6.661281e+00	8.368365e-03
6.666764e+00	7.581201e-04
6.672247e+00	1.325805e-05
6.677730e+00	4.349057e-08
6.683212e+00	2.326398e-09
6.688695e+00	1.289162e-06
6.694178e+00	1.352830e-04
6.699660e+00	2.684867e-03
6.705143e+00	1.069477e-02
6.710625e+00	1.106157e-02
6.716108e+00	4.400854e-03
6.721590e+00	5.490921e-04
6.727072e+00	1.487782e-05
6.732555e+00	7.993639e-06
6.738037e+00	1.141710e-04
6.743519e+00	3.169995e-04
6.749001e+00	1.009769e-03
6.754483e+00	1.437300e-02
6.759965e+00	4.504934e-02
6.765447e+00	2.640761e-02
6.770929e+00	3.088132e-03
6.776411e+00	7.122436e-03
6.781892e+00	4.750571e-02
6.787374e+00	5.969392e-02
6.792856e+00	1.401460e-02
6.798337e+00	7.012724e-04
6.803819e+00	2.681433e-03
6.809300e+00	1.545456e-02
6.814782e+00	1.667289e-02
6.820263e+00	3.360574e-03
6.825744e+00	1.265506e-04
6.831226e+00	8.903547e-07
6.836707e+00	1.170335e-09
6.842188e+00	2.874122e-13
6.847669e+00	0.000000e+00
6.853150e+00	0.000000e+00
6.858631e+00	0.000000e+00
6.864112e+00	0.000000e+00
6.869593e+00	0.000000e+00
6.875074e+00	0.000000e+00
6.880554e+00	2.457675e-40
6.886035e+00	4.955195e-12
6.891516e+00	1.095505e-08
6.896996e+00	4.524976e-06
6.902477e+00	3.491936e-04
6.907957e+00	5.034594e-03
6.913437e+00	1.356159e-02
6.918918e+00	6.825107e-03
6.924398e+00	6.489992e-04
6.929878e+00	2.614085e-04
6.935358e+00	2.279692e-03
6.940839e+00	4.362766e-03
6.946319e+00	1.605216e-03
6.951799e+00	1.110539e-04
6.957279e+00	1.437445e-06
6.962758e+00	3.478871e-09
6.968238e+00	5.853117e-09
6.973718e+00	3.819164e-06
6.979198e+00	4.657086e-04
6.984677e+00	1.060983e-02
6.990157e+00	4.515966e-02
6.995636e+00	3.591212e-02
7.001116e+00	5.335555e-03
7.006595e+00	1.481039e-04
7.012075e+00	7.680708e-07
7.017554e+00	7.441908e-10
7.023033e+00	1.204218e-32
7.028512e+00	1.528310e-32
7.033992e+00	9.033731e-33
7.039471e+00	3.702300e-32
7.044950e+00	4.632760e-32
7.050429e+00	1.090058e-32
7.055907e+00	1.243827e-33
7.061386e+00	2.986988e-12
7.066865e+00	7.691644e-09
7.072344e+00	3.700437e-06
7.077822e+00	3.326097e-04
7.083301e+00	5.585539e-03
7.088780e+00	1.752441e-02
7.094258e+00	1.027235e-02
7.099736e+00	1.124979e-03
7.105215e+00	2.301809e-05
7.110693e+00	1.528105e-07
7.116171e+00	6.786156e-06
7.121649e+00	1.327339e-04
7.127128e+00	4.850563e-04
7.132606e+00	3.311747e-04
7.138084e+00	4.583483e-05
7.143562e+00	5.279092e-04
7.149040e+00	1.601093e-02
7.154517e+00	1.024882e-01
7.159995e+00	1.376166e-01
7.165473e+00	3.796300e-02
7.170950e+00	2.099249e-03
7.176428e+00	2.281534e-05
7.181906e+00	4.809454e-08
7.187383e+00	1.939777e-11
7.192861e+00	2.928153e-41
7.198338e+00	3.261633e-41
7.203815e+00	8.233096e-12
7.209292e+00	1.341692e-08
7.214770e+00	4.084988e-06
7.220247e+00	2.323682e-04
7.225724e+00	2.469511e-03
7.231201e+00	4.903354e-03
7.236678e+00	1.818963e-03
7.242155e+00	1.261446e-04
7.247631e+00	2.904322e-05
7.253108e+00	1.816105e-03
7.258585e+00	2.248051e-02
7.264061e+00	5.199074e-02
7.269538e+00	2.259128e-02
7.275015e+00	6.403167e-03
7.280491e+00	3.089891e-02
7.285967e+00	3.901272e-02
7.291444e+00	1.346983e-02
7.296920e+00	1.634471e-02
7.302396e+00	1.089043e-02
7.307872e+00	1.442469e-03
7.313348e+00	9.365606e-04
7.318825e+00	2.834737e-03
7.324300e+00	1.661563e-03
7.329776e+00	1.819664e-04
7.335252e+00	3.723180e-06
7.340728e+00	1.423262e-08
7.346204e+00	1.016492e-11
7.351679e+00	2.341797e-42
7.357155e+00	0.000000e+00
7.362631e+00	0.000000e+00
7.368106e+00	0.000000e+00
7.373582e+00	0.000000e+00
7.379057e+00	0.000000e+00
7.384532e+00	1.645569e-11
7.390007e+00	2.683029e-08
7.395483e+00	8.176772e-06
7.400958e+00	4.664267e-04
7.406433e+00	4.997274e-03
7.411908e+00	1.015502e-02
7.417383e+00	4.018128e-03
7.422858e+00	3.302393e-04
7.428332e+00	8.336235e-05
7.433807e+00	9.555975e-04
7.439282e+00	2.209920e-03
7.444756e+00	9.548583e-04
7.450231e+00	7.708224e-05
7.455706e+00	1.807363e-06
7.461180e+00	9.158691e-05
7.466654e+00	2.430211e-03
7.472129e+00	1.204809e-02
7.477603e+00	1.115939e-02
7.483077e+00	1.931128e-03
7.488551e+00	6.243525e-05
7.494025e+00	3.771370e-07
7.499499e+00	7.668504e-09
7.504973e+00	4.727265e-06
7.510447e+00	5.764423e-04
7.515921e+00	1.313258e-02
7.521395e+00	5.589748e-02
7.526869e+00	4.445111e-02
7.532342e+00	6.604215e-03
7.537816e+00	1.833192e-04
7.543289e+00	9.506985e-07
7.548763e+00	9.211405e-10
7.554236e+00	4.924491e-38
7.559709e+00	1.740857e-15
7.565183e+00	7.561666e-12
7.570656e+00	6.953681e-09
7.576129e+00	1.707258e-06
7.581602e+00	1.311679e-04
7.587075e+00	2.708675e-03
7.592548e+00	1.257936e-02
7.598021e+00	1.226277e-02
7.603494e+00	2.898670e-03
7.608967e+00	5.040246e-03
7.614439e+00	9.817380e-03
7.619912e+00	3.641610e-03
7.625384e+00	2.523899e-04
7.630857e+00	3.268125e-06
7.636329e+00	7.906307e-09
7.641802e+00	3.573525e-12
7.647274e+00	4.766397e-34
7.652746e+00	4.549388e-36
7.658219e+00	1.025805e-11
7.663691e+00	1.671685e-08
7.669163e+00	5.089701e-06
7.674635e+00	2.895198e-04
7.680107e+00	3.076893e-03
7.685579e+00	6.109347e-03
7.691050e+00	2.266341e-03
7.696522e+00	1.570739e-04
7.701994e+00	2.033905e-06
7.707465e+00	4.920672e-09
7.712937e+00	7.432520e-10
7.718409e+00	4.836514e-07
7.723880e+00	5.897641e-05
7.729351e+00	1.343608e-03
7.734823e+00	5.718929e-03
7.740294e+00	4.547840e-03
7.745765e+00	6.756841e-04
7.751236e+00	1.877203e-05
7.756707e+00	3.789005e-06
7.762178e+00	1.547937e-04
7.767649e+00	1.212645e-03
7.773120e+00	1.782634e-03
7.778591e+00	8.944556e-04
7.784061e+00	5.413418e-03
7.789532e+00	2.968416e-02
7.795003e+00	5.709445e-02
7.800473e+00	2.540816e-02
7.805944e+00	4.309254e-03
7.811414e+00	1.935023e-03
7.816884e+00	6.001630e-04
7.822355e+00	4.083713e-05
7.827825e+00	5.277983e-07
7.833295e+00	1.276616e-09
7.838765e+00	5.769977e-13
7.844235e+00	3.689673e-32
7.849705e+00	4.111655e-32
7.855175e+00	1.489588e-32
7.860645e+00	1.032043e-33
7.866115e+00	8.887468e-35
7.871584e+00	2.718545e-33
7.877054e+00	1.828393e-32
7.882523e+00	2.297502e-32
7.887993e+00	5.393885e-33
7.893462e+00	2.523108e-34
7.898932e+00	4.124954e-34
7.904401e+00	3.226911e-33
7.909870e+00	7.620262e-33
7.915339e+00	4.147389e-33
7.915837e+00	3.625382e-33