File: cif_pxrd_calculator/txt/iq/li0.5tio2_li0.5tio2_8262.txt
# Q [Å^-1]	I_scaled [a.u.]
0.000000e+00	0.000000e+00
5.516321e-03	0.000000e+00
1.103264e-02	0.000000e+00
1.654896e-02	0.000000e+00
2.206528e-02	0.000000e+00
2.758161e-02	0.000000e+00
3.309793e-02	0.000000e+00
3.861425e-02	0.000000e+00
4.413057e-02	0.000000e+00
4.964689e-02	0.000000e+00
5.516321e-02	0.000000e+00
6.067952e-02	0.000000e+00
6.619584e-02	0.000000e+00
7.171216e-02	0.000000e+00
7.722848e-02	0.000000e+00
8.274479e-02	0.000000e+00
8.826111e-02	0.000000e+00
9.377742e-02	0.000000e+00
9.929374e-02	0.000000e+00
1.048101e-01	0.000000e+00
1.103264e-01	0.000000e+00
1.158427e-01	0.000000e+00
1.213590e-01	0.000000e+00
1.268753e-01	0.000000e+00
1.323916e-01	0.000000e+00
1.379079e-01	0.000000e+00
1.434242e-01	0.000000e+00
1.489405e-01	0.000000e+00
1.544568e-01	0.000000e+00
1.599731e-01	0.000000e+00
1.654894e-01	0.000000e+00
1.710057e-01	0.000000e+00
1.765220e-01	0.000000e+00
1.820383e-01	0.000000e+00
1.875546e-01	0.000000e+00
1.930709e-01	0.000000e+00
1.985872e-01	0.000000e+00
2.041035e-01	0.000000e+00
2.096198e-01	0.000000e+00
2.151361e-01	0.000000e+00
2.206524e-01	0.000000e+00
2.261686e-01	0.000000e+00
2.316849e-01	0.000000e+00
2.372012e-01	0.000000e+00
2.427175e-01	0.000000e+00
2.482338e-01	0.000000e+00
2.537500e-01	0.000000e+00
2.592663e-01	0.000000e+00
2.647826e-01	0.000000e+00
2.702988e-01	0.000000e+00
2.758151e-01	0.000000e+00
2.813314e-01	0.000000e+00
2.868476e-01	0.000000e+00
2.923639e-01	0.000000e+00
2.978802e-01	0.000000e+00
3.033964e-01	0.000000e+00
3.089127e-01	0.000000e+00
3.144289e-01	0.000000e+00
3.199452e-01	0.000000e+00
3.254614e-01	0.000000e+00
3.309776e-01	0.000000e+00
3.364939e-01	0.000000e+00
3.420101e-01	0.000000e+00
3.475263e-01	0.000000e+00
3.530426e-01	0.000000e+00
3.585588e-01	0.000000e+00
3.640750e-01	0.000000e+00
3.695912e-01	0.000000e+00
3.751075e-01	0.000000e+00
3.806237e-01	0.000000e+00
3.861399e-01	0.000000e+00
3.916561e-01	0.000000e+00
3.971723e-01	0.000000e+00
4.026885e-01	0.000000e+00
4.082047e-01	0.000000e+00
4.137209e-01	0.000000e+00
4.192371e-01	0.000000e+00
4.247533e-01	0.000000e+00
4.302695e-01	0.000000e+00
4.357856e-01	0.000000e+00
4.413018e-01	0.000000e+00
4.468180e-01	0.000000e+00
4.523342e-01	0.000000e+00
4.578503e-01	0.000000e+00
4.633665e-01	0.000000e+00
4.688826e-01	0.000000e+00
4.743988e-01	0.000000e+00
4.799149e-01	0.000000e+00
4.854311e-01	0.000000e+00
4.909472e-01	0.000000e+00
4.964634e-01	0.000000e+00
5.019795e-01	0.000000e+00
5.074956e-01	0.000000e+00
5.130118e-01	0.000000e+00
5.185279e-01	0.000000e+00
5.240440e-01	0.000000e+00
5.295601e-01	0.000000e+00
5.350762e-01	0.000000e+00
5.405923e-01	0.000000e+00
5.461084e-01	0.000000e+00
5.516245e-01	0.000000e+00
5.571406e-01	0.000000e+00
5.626567e-01	0.000000e+00
5.681728e-01	0.000000e+00
5.736889e-01	0.000000e+00
5.792049e-01	0.000000e+00
5.847210e-01	0.000000e+00
5.902371e-01	0.000000e+00
5.957531e-01	0.000000e+00
6.012692e-01	0.000000e+00
6.067852e-01	0.000000e+00
6.123013e-01	0.000000e+00
6.178173e-01	0.000000e+00
6.233333e-01	0.000000e+00
6.288494e-01	8.362541e-42
6.343654e-01	2.508164e-38
6.398814e-01	1.405470e-35
6.453974e-01	1.471417e-33
6.509134e-01	2.878046e-32
6.564294e-01	1.051739e-31
6.619454e-01	7.180695e-32
6.674614e-01	9.159528e-33
6.729774e-01	2.182870e-34
6.784934e-01	9.719205e-37
6.840093e-01	8.085033e-40
6.895253e-01	0.000000e+00
6.950413e-01	0.000000e+00
7.005572e-01	0.000000e+00
7.060732e-01	0.000000e+00
7.115891e-01	0.000000e+00
7.171051e-01	0.000000e+00
7.226210e-01	0.000000e+00
7.281369e-01	0.000000e+00
7.336528e-01	0.000000e+00
7.391688e-01	0.000000e+00
7.446847e-01	0.000000e+00
7.502006e-01	0.000000e+00
7.557165e-01	0.000000e+00
7.612323e-01	0.000000e+00
7.667482e-01	0.000000e+00
7.722641e-01	0.000000e+00
7.777800e-01	0.000000e+00
7.832958e-01	0.000000e+00
7.888117e-01	0.000000e+00
7.943276e-01	0.000000e+00
7.998434e-01	0.000000e+00
8.053592e-01	0.000000e+00
8.108751e-01	0.000000e+00
8.163909e-01	0.000000e+00
8.219067e-01	0.000000e+00
8.274225e-01	0.000000e+00
8.329383e-01	0.000000e+00
8.384541e-01	0.000000e+00
8.439699e-01	0.000000e+00
8.494857e-01	0.000000e+00
8.550015e-01	0.000000e+00
8.605172e-01	0.000000e+00
8.660330e-01	0.000000e+00
8.715488e-01	0.000000e+00
8.770645e-01	0.000000e+00
8.825803e-01	0.000000e+00
8.880960e-01	0.000000e+00
8.936117e-01	0.000000e+00
8.991274e-01	0.000000e+00
9.046431e-01	0.000000e+00
9.101588e-01	0.000000e+00
9.156745e-01	0.000000e+00
9.211902e-01	0.000000e+00
9.267059e-01	0.000000e+00
9.322216e-01	0.000000e+00
9.377373e-01	0.000000e+00
9.432529e-01	0.000000e+00
9.487686e-01	0.000000e+00
9.542842e-01	0.000000e+00
9.597998e-01	0.000000e+00
9.653155e-01	0.000000e+00
9.708311e-01	0.000000e+00
9.763467e-01	0.000000e+00
9.818623e-01	0.000000e+00
9.873779e-01	0.000000e+00
9.928935e-01	0.000000e+00
9.984091e-01	0.000000e+00
1.003925e+00	0.000000e+00
1.009440e+00	0.000000e+00
1.014956e+00	0.000000e+00
1.020471e+00	0.000000e+00
1.025987e+00	0.000000e+00
1.031502e+00	0.000000e+00
1.037018e+00	0.000000e+00
1.042533e+00	0.000000e+00
1.048049e+00	0.000000e+00
1.053564e+00	0.000000e+00
1.059080e+00	0.000000e+00
1.064595e+00	0.000000e+00
1.070111e+00	0.000000e+00
1.075626e+00	0.000000e+00
1.081142e+00	0.000000e+00
1.086657e+00	0.000000e+00
1.092173e+00	0.000000e+00
1.097688e+00	0.000000e+00
1.103203e+00	0.000000e+00
1.108719e+00	0.000000e+00
1.114234e+00	0.000000e+00
1.119750e+00	0.000000e+00
1.125265e+00	0.000000e+00
1.130780e+00	0.000000e+00
1.136296e+00	0.000000e+00
1.141811e+00	0.000000e+00
1.147326e+00	0.000000e+00
1.152842e+00	0.000000e+00
1.158357e+00	0.000000e+00
1.163872e+00	0.000000e+00
1.169388e+00	0.000000e+00
1.174903e+00	0.000000e+00
1.180418e+00	0.000000e+00
1.185933e+00	0.000000e+00
1.191449e+00	0.000000e+00
1.196964e+00	0.000000e+00
1.202479e+00	0.000000e+00
1.207994e+00	0.000000e+00
1.213510e+00	0.000000e+00
1.219025e+00	0.000000e+00
1.224540e+00	8.116228e-42
1.230055e+00	1.794353e-38
1.235570e+00	7.411562e-36
1.241086e+00	5.719522e-34
1.246601e+00	8.246276e-33
1.252116e+00	2.221285e-32
1.257631e+00	1.117889e-32
1.263146e+00	1.051093e-33
1.268661e+00	1.846427e-35
1.274176e+00	6.059977e-38
1.279692e+00	3.715849e-41
1.285207e+00	0.000000e+00
1.290722e+00	1.866809e-10
1.296237e+00	2.242465e-07
1.301752e+00	5.032682e-05
1.307267e+00	2.110190e-03
1.312782e+00	1.653072e-02
1.318297e+00	2.419414e-02
1.323812e+00	6.615713e-03
1.329327e+00	3.379803e-04
1.334842e+00	3.225924e-06
1.340357e+00	5.752613e-09
1.345872e+00	1.916568e-12
1.351387e+00	0.000000e+00
1.356902e+00	0.000000e+00
1.362417e+00	0.000000e+00
1.367932e+00	0.000000e+00
1.373447e+00	0.000000e+00
1.378961e+00	0.000000e+00
1.384476e+00	0.000000e+00
1.389991e+00	2.981073e-08
1.395506e+00	2.639577e-05
1.401021e+00	4.366608e-03
1.406536e+00	1.349591e-01
1.412051e+00	7.793069e-01
1.417565e+00	8.407423e-01
1.423080e+00	1.694593e-01
1.428595e+00	6.381403e-03
1.434110e+00	4.489676e-05
1.439625e+00	5.901495e-08
1.445139e+00	1.449296e-11
1.450654e+00	0.000000e+00
1.456169e+00	0.000000e+00
1.461684e+00	0.000000e+00
1.467198e+00	0.000000e+00
1.472713e+00	0.000000e+00
1.478228e+00	0.000000e+00
1.483742e+00	0.000000e+00
1.489257e+00	0.000000e+00
1.494772e+00	0.000000e+00
1.500286e+00	0.000000e+00
1.505801e+00	0.000000e+00
1.511316e+00	0.000000e+00
1.516830e+00	0.000000e+00
1.522345e+00	0.000000e+00
1.527859e+00	0.000000e+00
1.533374e+00	0.000000e+00
1.538888e+00	0.000000e+00
1.544403e+00	0.000000e+00
1.549918e+00	0.000000e+00
1.555432e+00	0.000000e+00
1.560947e+00	0.000000e+00
1.566461e+00	0.000000e+00
1.571975e+00	0.000000e+00
1.577490e+00	0.000000e+00
1.583004e+00	0.000000e+00
1.588519e+00	0.000000e+00
1.594033e+00	0.000000e+00
1.599548e+00	0.000000e+00
1.605062e+00	0.000000e+00
1.610576e+00	0.000000e+00
1.616091e+00	0.000000e+00
1.621605e+00	0.000000e+00
1.627120e+00	0.000000e+00
1.632634e+00	0.000000e+00
1.638148e+00	0.000000e+00
1.643662e+00	0.000000e+00
1.649177e+00	0.000000e+00
1.654691e+00	0.000000e+00
1.660205e+00	0.000000e+00
1.665720e+00	0.000000e+00
1.671234e+00	0.000000e+00
1.676748e+00	0.000000e+00
1.682262e+00	0.000000e+00
1.687776e+00	0.000000e+00
1.693291e+00	0.000000e+00
1.698805e+00	0.000000e+00
1.704319e+00	0.000000e+00
1.709833e+00	0.000000e+00
1.715347e+00	0.000000e+00
1.720861e+00	0.000000e+00
1.726375e+00	0.000000e+00
1.731889e+00	0.000000e+00
1.737403e+00	0.000000e+00
1.742918e+00	0.000000e+00
1.748432e+00	0.000000e+00
1.753946e+00	0.000000e+00
1.759460e+00	0.000000e+00
1.764974e+00	0.000000e+00
1.770488e+00	0.000000e+00
1.776002e+00	0.000000e+00
1.781515e+00	0.000000e+00
1.787029e+00	8.904277e-13
1.792543e+00	3.623100e-09
1.798057e+00	2.754293e-06
1.803571e+00	3.911902e-04
1.809085e+00	1.038040e-02
1.814599e+00	5.146220e-02
1.820113e+00	4.766622e-02
1.825627e+00	8.248620e-03
1.831140e+00	2.666859e-04
1.836654e+00	1.610894e-06
1.842168e+00	1.817950e-09
1.847682e+00	0.000000e+00
1.853195e+00	0.000000e+00
1.858709e+00	0.000000e+00
1.864223e+00	0.000000e+00
1.869737e+00	0.000000e+00
1.875250e+00	0.000000e+00
1.880764e+00	0.000000e+00
1.886278e+00	0.000000e+00
1.891791e+00	0.000000e+00
1.897305e+00	0.000000e+00
1.902819e+00	0.000000e+00
1.908332e+00	0.000000e+00
1.913846e+00	0.000000e+00
1.919359e+00	0.000000e+00
1.924873e+00	0.000000e+00
1.930386e+00	0.000000e+00
1.935900e+00	0.000000e+00
1.941413e+00	0.000000e+00
1.946927e+00	1.479331e-41
1.952440e+00	3.270536e-38
1.957954e+00	1.350892e-35
1.963467e+00	1.042487e-33
1.968981e+00	1.503034e-32
1.974494e+00	4.048696e-32
1.980007e+00	2.037556e-32
1.985521e+00	1.915809e-33
1.991034e+00	3.365449e-35
1.996547e+00	1.104541e-37
2.002061e+00	6.772812e-41
2.007574e+00	0.000000e+00
2.013087e+00	0.000000e+00
2.018601e+00	0.000000e+00
2.024114e+00	0.000000e+00
2.029627e+00	0.000000e+00
2.035140e+00	0.000000e+00
2.040654e+00	0.000000e+00
2.046167e+00	0.000000e+00
2.051680e+00	0.000000e+00
2.057193e+00	0.000000e+00
2.062706e+00	0.000000e+00
2.068219e+00	0.000000e+00
2.073732e+00	0.000000e+00
2.079246e+00	0.000000e+00
2.084759e+00	0.000000e+00
2.090272e+00	0.000000e+00
2.095785e+00	0.000000e+00
2.101298e+00	0.000000e+00
2.106811e+00	1.538644e-41
2.112324e+00	2.152761e-38
2.117837e+00	5.627322e-36
2.123350e+00	2.748247e-34
2.128863e+00	2.507598e-33
2.134375e+00	4.274726e-33
2.139888e+00	1.361466e-33
2.145401e+00	8.101277e-35
2.150914e+00	9.006339e-37
2.156427e+00	1.870645e-39
2.161940e+00	7.259094e-43
2.167453e+00	0.000000e+00
2.172965e+00	0.000000e+00
2.178478e+00	0.000000e+00
2.183991e+00	0.000000e+00
2.189504e+00	0.000000e+00
2.195016e+00	0.000000e+00
2.200529e+00	0.000000e+00
2.206042e+00	3.509448e-41
2.211554e+00	4.910170e-38
2.217067e+00	1.283519e-35
2.222580e+00	6.268396e-34
2.228092e+00	5.719507e-33
2.233605e+00	9.750097e-33
2.239117e+00	3.105328e-33
2.244630e+00	1.847796e-34
2.250142e+00	2.054229e-36
2.255655e+00	4.266698e-39
2.261168e+00	1.655705e-42
2.266680e+00	0.000000e+00
2.272192e+00	0.000000e+00
2.277705e+00	0.000000e+00
2.283217e+00	0.000000e+00
2.288730e+00	0.000000e+00
2.294242e+00	0.000000e+00
2.299754e+00	0.000000e+00
2.305267e+00	0.000000e+00
2.310779e+00	1.425354e-10
2.316291e+00	3.151204e-07
2.321804e+00	1.301602e-04
2.327316e+00	1.004450e-02
2.332828e+00	1.448193e-01
2.338340e+00	3.900971e-01
2.343853e+00	1.963212e-01
2.349365e+00	1.845907e-02
2.354877e+00	3.242654e-04
2.360389e+00	1.064240e-06
2.365901e+00	6.525693e-10
2.371413e+00	0.000000e+00
2.376926e+00	0.000000e+00
2.382438e+00	0.000000e+00
2.387950e+00	0.000000e+00
2.393462e+00	0.000000e+00
2.398974e+00	0.000000e+00
2.404486e+00	0.000000e+00
2.409998e+00	0.000000e+00
2.415510e+00	0.000000e+00
2.421022e+00	0.000000e+00
2.426533e+00	0.000000e+00
2.432045e+00	0.000000e+00
2.437557e+00	0.000000e+00
2.443069e+00	0.000000e+00
2.448581e+00	4.800340e-10
2.454093e+00	4.250438e-07
2.459605e+00	7.031430e-05
2.465116e+00	2.173210e-03
2.470628e+00	1.254897e-02
2.476140e+00	1.353824e-02
2.481651e+00	2.728771e-03
2.487163e+00	1.125913e-04
2.492675e+00	1.369522e-03
2.498186e+00	3.726093e-02
2.503698e+00	1.967243e-01
2.509210e+00	1.996464e-01
2.514721e+00	3.863508e-02
2.520233e+00	1.416636e-03
2.525744e+00	9.796476e-06
2.531256e+00	1.277569e-08
2.536767e+00	1.038801e-07
2.542279e+00	4.997508e-05
2.547790e+00	4.491956e-03
2.553302e+00	7.543373e-02
2.558813e+00	2.366704e-01
2.564325e+00	1.387300e-01
2.569836e+00	1.519306e-02
2.575347e+00	3.120713e-04
2.580859e+00	4.472025e-05
2.586370e+00	2.927839e-04
2.591881e+00	3.679022e-04
2.597393e+00	8.637079e-05
2.602904e+00	3.788346e-06
2.608415e+00	3.164710e-08
2.613926e+00	5.338885e-07
2.619437e+00	8.831242e-05
2.624949e+00	2.729480e-03
2.630460e+00	1.576108e-02
2.635971e+00	1.700358e-02
2.641482e+00	3.427228e-03
2.646993e+00	1.290606e-04
2.652504e+00	9.080141e-07
2.658015e+00	1.193547e-09
2.663526e+00	2.931128e-13
2.669037e+00	0.000000e+00
2.674548e+00	0.000000e+00
2.680059e+00	0.000000e+00
2.685570e+00	0.000000e+00
2.691081e+00	0.000000e+00
2.696592e+00	0.000000e+00
2.702103e+00	0.000000e+00
2.707613e+00	0.000000e+00
2.713124e+00	0.000000e+00
2.718635e+00	0.000000e+00
2.724146e+00	0.000000e+00
2.729657e+00	0.000000e+00
2.735167e+00	0.000000e+00
2.740678e+00	0.000000e+00
2.746189e+00	0.000000e+00
2.751699e+00	0.000000e+00
2.757210e+00	0.000000e+00
2.762721e+00	0.000000e+00
2.768231e+00	0.000000e+00
2.773742e+00	5.054273e-11
2.779252e+00	1.301501e-07
2.784763e+00	6.261497e-05
2.790273e+00	5.628078e-03
2.795784e+00	9.451272e-02
2.801294e+00	2.965299e-01
2.806805e+00	1.738181e-01
2.812315e+00	1.903852e-02
2.817825e+00	6.399424e-04
2.823336e+00	4.207414e-03
2.828846e+00	1.319592e-02
2.834356e+00	7.735105e-03
2.839867e+00	8.471120e-04
2.845377e+00	1.733260e-05
2.850887e+00	6.625742e-08
2.856397e+00	4.732096e-11
2.861907e+00	0.000000e+00
2.867418e+00	0.000000e+00
2.872928e+00	0.000000e+00
2.878438e+00	2.461761e-41
2.883948e+00	6.339158e-38
2.889458e+00	1.526708e-10
2.894968e+00	2.136061e-07
2.900478e+00	5.583667e-05
2.905988e+00	2.726927e-03
2.911498e+00	2.488145e-02
2.917008e+00	4.241565e-02
2.922518e+00	1.350904e-02
2.928028e+00	8.038430e-04
2.933538e+00	8.936471e-06
2.939048e+00	1.856133e-08
2.944557e+00	7.202780e-12
2.950067e+00	0.000000e+00
2.955577e+00	0.000000e+00
2.961087e+00	0.000000e+00
2.966596e+00	0.000000e+00
2.972106e+00	0.000000e+00
2.977616e+00	0.000000e+00
2.983126e+00	0.000000e+00
2.988635e+00	0.000000e+00
2.994145e+00	0.000000e+00
2.999654e+00	0.000000e+00
3.005164e+00	0.000000e+00
3.010673e+00	0.000000e+00
3.016183e+00	0.000000e+00
3.021692e+00	0.000000e+00
3.027202e+00	0.000000e+00
3.032711e+00	0.000000e+00
3.038221e+00	0.000000e+00
3.043730e+00	0.000000e+00
3.049239e+00	0.000000e+00
3.054749e+00	0.000000e+00
3.060258e+00	0.000000e+00
3.065767e+00	0.000000e+00
3.071277e+00	0.000000e+00
3.076786e+00	0.000000e+00
3.082295e+00	0.000000e+00
3.087804e+00	0.000000e+00
3.093313e+00	0.000000e+00
3.098823e+00	0.000000e+00
3.104332e+00	0.000000e+00
3.109841e+00	0.000000e+00
3.115350e+00	0.000000e+00
3.120859e+00	0.000000e+00
3.126368e+00	0.000000e+00
3.131877e+00	0.000000e+00
3.137386e+00	5.229763e-11
3.142895e+00	1.156207e-07
3.148404e+00	4.775705e-05
3.153912e+00	3.685424e-03
3.159421e+00	5.313561e-02
3.164930e+00	1.431304e-01
3.170439e+00	7.203419e-02
3.175948e+00	7.108856e-03
3.181456e+00	1.050512e-02
3.186965e+00	5.997406e-02
3.192474e+00	6.470160e-02
3.197982e+00	1.304120e-02
3.203491e+00	4.910981e-04
3.209000e+00	3.455152e-06
3.214508e+00	4.541655e-09
3.220017e+00	1.115345e-12
3.225525e+00	0.000000e+00
3.231034e+00	0.000000e+00
3.236542e+00	0.000000e+00
3.242051e+00	0.000000e+00
3.247559e+00	0.000000e+00
3.253068e+00	0.000000e+00
3.258576e+00	0.000000e+00
3.264084e+00	8.155288e-41
3.269593e+00	1.247376e-37
3.275101e+00	3.637772e-35
3.280609e+00	2.026466e-33
3.286117e+00	2.158315e-32
3.291626e+00	4.394601e-32
3.297134e+00	1.708711e-32
3.302642e+00	1.266248e-33
3.308150e+00	1.783999e-35
3.313658e+00	4.765718e-38
3.319166e+00	2.407542e-41
3.324674e+00	0.000000e+00
3.330182e+00	2.796943e-11
3.335690e+00	2.884545e-08
3.341198e+00	5.558009e-06
3.346706e+00	2.000826e-04
3.352214e+00	1.345698e-03
3.357722e+00	1.690962e-03
3.363230e+00	3.969800e-04
3.368737e+00	1.768015e-05
3.374245e+00	6.030137e-05
3.379753e+00	2.522437e-03
3.385261e+00	1.976016e-02
3.390768e+00	2.892071e-02
3.396276e+00	7.908160e-03
3.401784e+00	4.040081e-04
3.407291e+00	3.856141e-06
3.412799e+00	6.876444e-09
3.418307e+00	2.290989e-12
3.423814e+00	0.000000e+00
3.429322e+00	0.000000e+00
3.434829e+00	0.000000e+00
3.440337e+00	0.000000e+00
3.445844e+00	0.000000e+00
3.451351e+00	0.000000e+00
3.456859e+00	0.000000e+00
3.462366e+00	0.000000e+00
3.467873e+00	0.000000e+00
3.473381e+00	0.000000e+00
3.478888e+00	0.000000e+00
3.484395e+00	0.000000e+00
3.489902e+00	0.000000e+00
3.495410e+00	1.303178e-11
3.500917e+00	1.823313e-08
3.506424e+00	4.766145e-06
3.511931e+00	2.327669e-04
3.517438e+00	2.123849e-03
3.522945e+00	3.622368e-03
3.528452e+00	1.630035e-03
3.533959e+00	2.336028e-02
3.539466e+00	2.125222e-01
3.544973e+00	3.622873e-01
3.550480e+00	1.153856e-01
3.555986e+00	6.865912e-03
3.561493e+00	7.632962e-05
3.567000e+00	1.585390e-07
3.572507e+00	6.152154e-11
3.578014e+00	0.000000e+00
3.583520e+00	2.342801e-13
3.589027e+00	8.184367e-10
3.594534e+00	5.341742e-07
3.600040e+00	6.513716e-05
3.605547e+00	1.483963e-03
3.611053e+00	6.316383e-03
3.616560e+00	5.049725e-03
3.622066e+00	3.553336e-03
3.627573e+00	5.492614e-02
3.633079e+00	2.006438e-01
3.638586e+00	1.369885e-01
3.644092e+00	1.747393e-02
3.649598e+00	4.164332e-04
3.655105e+00	1.854164e-06
3.660611e+00	1.542408e-09
3.666117e+00	0.000000e+00
3.671623e+00	0.000000e+00
3.677129e+00	0.000000e+00
3.682636e+00	0.000000e+00
3.688142e+00	0.000000e+00
3.693648e+00	0.000000e+00
3.699154e+00	0.000000e+00
3.704660e+00	0.000000e+00
3.710166e+00	0.000000e+00
3.715672e+00	0.000000e+00
3.721178e+00	0.000000e+00
3.726684e+00	0.000000e+00
3.732190e+00	9.631132e-41
3.737696e+00	9.932786e-38
3.743201e+00	1.913872e-35
3.748707e+00	6.889743e-34
3.754213e+00	4.633843e-33
3.759719e+00	5.822743e-33
3.765224e+00	1.366980e-33
3.770730e+00	5.995769e-35
3.776236e+00	4.913327e-37
3.781741e+00	7.522370e-40
3.787247e+00	2.880054e-12
3.792752e+00	5.466663e-09
3.798258e+00	1.938618e-06
3.803763e+00	1.284429e-04
3.809269e+00	1.589924e-03
3.814774e+00	3.677018e-03
3.820280e+00	1.609765e-03
3.825785e+00	2.017990e-03
3.831290e+00	3.173644e-02
3.836796e+00	9.956578e-02
3.842301e+00	5.836285e-02
3.847806e+00	6.391622e-03
3.853311e+00	1.307778e-04
3.858816e+00	4.999249e-07
3.864321e+00	3.570457e-10
3.869827e+00	0.000000e+00
3.875332e+00	0.000000e+00
3.880837e+00	0.000000e+00
3.886342e+00	0.000000e+00
3.891847e+00	0.000000e+00
3.897352e+00	5.588723e-40
3.902856e+00	5.763766e-37
3.908361e+00	1.110576e-34
3.913866e+00	3.997959e-33
3.919371e+00	2.688912e-32
3.924876e+00	1.311902e-10
3.930380e+00	1.352992e-07
3.935885e+00	2.606977e-05
3.941390e+00	9.384848e-04
3.946895e+00	6.311978e-03
3.952399e+00	7.931437e-03
3.957904e+00	1.862032e-03
3.963408e+00	8.360000e-05
3.968913e+00	2.358643e-04
3.974417e+00	5.358242e-03
3.979922e+00	2.280681e-02
3.985426e+00	1.813656e-02
3.990930e+00	2.694595e-03
3.996435e+00	7.479632e-05
4.001939e+00	3.878958e-07
4.007443e+00	3.758358e-10
4.012948e+00	0.000000e+00
4.018452e+00	0.000000e+00
4.023956e+00	0.000000e+00
4.029460e+00	0.000000e+00
4.034964e+00	0.000000e+00
4.040468e+00	0.000000e+00
4.045972e+00	0.000000e+00
4.051476e+00	0.000000e+00
4.056980e+00	0.000000e+00
4.062484e+00	0.000000e+00
4.067988e+00	0.000000e+00
4.073492e+00	0.000000e+00
4.078996e+00	0.000000e+00
4.084500e+00	0.000000e+00
4.090004e+00	8.887433e-11
4.095507e+00	1.964853e-07
4.101011e+00	8.115810e-05
4.106515e+00	6.262992e-03
4.112018e+00	9.029839e-02
4.117522e+00	2.432358e-01
4.123026e+00	1.225100e-01
4.128529e+00	1.413466e-02
4.134033e+00	1.327993e-02
4.139536e+00	1.269836e-02
4.145040e+00	3.193901e-03
4.150543e+00	4.206612e-04
4.156046e+00	2.142752e-05
4.161550e+00	2.341470e-07
4.167053e+00	4.853762e-10
4.172556e+00	1.883517e-13
4.178059e+00	0.000000e+00
4.183563e+00	0.000000e+00
4.189066e+00	1.341811e-10
4.194569e+00	1.383838e-07
4.200072e+00	2.666411e-05
4.205575e+00	9.598803e-04
4.211078e+00	6.455878e-03
4.216581e+00	8.112257e-03
4.222084e+00	1.904503e-03
4.227587e+00	9.494545e-05
4.233090e+00	1.026466e-03
4.238593e+00	1.722602e-02
4.244096e+00	5.404607e-02
4.249598e+00	3.172293e-02
4.255101e+00	6.757042e-03
4.260604e+00	4.747031e-02
4.266106e+00	1.276790e-01
4.271609e+00	6.425588e-02
4.277112e+00	6.041649e-03
4.282614e+00	1.061320e-04
4.288117e+00	3.483255e-07
4.293619e+00	2.527908e-10
4.299122e+00	7.441552e-08
4.304624e+00	2.638963e-05
4.310127e+00	1.748442e-03
4.315629e+00	2.164300e-02
4.321131e+00	5.005320e-02
4.326634e+00	2.162690e-02
4.332136e+00	1.745842e-03
4.337638e+00	2.633078e-05
4.343140e+00	7.425256e-08
4.348642e+00	1.287876e-07
4.354144e+00	5.317948e-05
4.359646e+00	4.103875e-03
4.365148e+00	5.916873e-02
4.370650e+00	1.593817e-01
4.376152e+00	8.021083e-02
4.381654e+00	7.541811e-03
4.387156e+00	1.324849e-04
4.392658e+00	4.348158e-07
4.398160e+00	2.666198e-10
4.403662e+00	0.000000e+00
4.409163e+00	0.000000e+00
4.414665e+00	0.000000e+00
4.420167e+00	2.308366e-41
4.425668e+00	3.229702e-38
4.431170e+00	8.442447e-36
4.436672e+00	2.683217e-13
4.442173e+00	6.909417e-10
4.447675e+00	3.324109e-07
4.453176e+00	2.987839e-05
4.458677e+00	5.017499e-04
4.464179e+00	1.574223e-03
4.469680e+00	9.250422e-04
4.475181e+00	5.403109e-04
4.480683e+00	1.598132e-02
4.486184e+00	1.134680e-01
4.491685e+00	1.829087e-01
4.497186e+00	9.361608e-02
4.502687e+00	1.601431e-02
4.508188e+00	1.061500e-03
4.513690e+00	2.753063e-03
4.519191e+00	3.452792e-03
4.524691e+00	8.105951e-04
4.530192e+00	3.555385e-05
4.535693e+00	2.913517e-07
4.541194e+00	4.460633e-10
4.546695e+00	1.275921e-13
4.552196e+00	0.000000e+00
4.557696e+00	0.000000e+00
4.563197e+00	1.529030e-10
4.568698e+00	1.576921e-07
4.574198e+00	3.038448e-05
4.579699e+00	1.093810e-03
4.585200e+00	7.356650e-03
4.590700e+00	9.244139e-03
4.596201e+00	2.170206e-03
4.601701e+00	9.518832e-05
4.607201e+00	7.800358e-07
4.612702e+00	1.407902e-09
4.618202e+00	1.891819e-07
4.623702e+00	3.129600e-05
4.629203e+00	9.672682e-04
4.634703e+00	5.585390e-03
4.640203e+00	6.026534e-03
4.645703e+00	1.244673e-03
4.651203e+00	4.330654e-04
4.656703e+00	2.364468e-03
4.662203e+00	3.813505e-03
4.667703e+00	2.141330e-03
4.673203e+00	8.664470e-03
4.678703e+00	1.464962e-02
4.684203e+00	4.665537e-03
4.689703e+00	2.776183e-04
4.695203e+00	3.086334e-06
4.700702e+00	6.410412e-09
4.706202e+00	2.487580e-12
4.711702e+00	1.050724e-33
4.717201e+00	2.149867e-35
4.722701e+00	1.275179e-12
4.728201e+00	3.283650e-09
4.733700e+00	1.579758e-06
4.739199e+00	1.419949e-04
4.744699e+00	2.384530e-03
4.750198e+00	7.481369e-03
4.755698e+00	4.386074e-03
4.761197e+00	6.134102e-04
4.766696e+00	4.802870e-03
4.772195e+00	3.223667e-02
4.777695e+00	4.050755e-02
4.783194e+00	9.509781e-03
4.788693e+00	4.171125e-04
4.794192e+00	3.418094e-06
4.799691e+00	5.233148e-09
4.805190e+00	1.496891e-12
4.810689e+00	0.000000e+00
4.816188e+00	0.000000e+00
4.821687e+00	0.000000e+00
4.827186e+00	0.000000e+00
4.832684e+00	0.000000e+00
4.838183e+00	6.566827e-11
4.843682e+00	1.246457e-07
4.849181e+00	4.420253e-05
4.854679e+00	2.928634e-03
4.860178e+00	3.625194e-02
4.865676e+00	8.383890e-02
4.871175e+00	3.622497e-02
4.876673e+00	2.924278e-03
4.882172e+00	4.410395e-05
4.887670e+00	1.242752e-07
4.893169e+00	6.542437e-11
4.898667e+00	0.000000e+00
4.904165e+00	0.000000e+00
4.909663e+00	0.000000e+00
4.915162e+00	0.000000e+00
4.920660e+00	2.291062e-11
4.926158e+00	3.733590e-08
4.931656e+00	1.136749e-05
4.937154e+00	6.466220e-04
4.942652e+00	6.872024e-03
4.948150e+00	1.364479e-02
4.953648e+00	5.061713e-03
4.959146e+00	3.508134e-04
4.964644e+00	4.542585e-06
4.970141e+00	1.339343e-08
4.975639e+00	9.328681e-07
4.981137e+00	9.178403e-05
4.986634e+00	2.369308e-03
4.992132e+00	1.408076e-02
4.997630e+00	1.717834e-02
5.003127e+00	7.619865e-03
5.008625e+00	1.660981e-02
5.014122e+00	1.817213e-02
5.019620e+00	5.319956e-03
5.025117e+00	3.691326e-04
5.030614e+00	5.323134e-06
5.036112e+00	1.012145e-05
5.041609e+00	7.806442e-04
5.047106e+00	1.135520e-02
5.052603e+00	3.324210e-02
5.058100e+00	2.989109e-02
5.063597e+00	1.500126e-02
5.069094e+00	2.373129e-03
5.074591e+00	7.599421e-05
5.080088e+00	4.585882e-07
5.085585e+00	5.174757e-10
5.091082e+00	2.575481e-13
5.096579e+00	7.724599e-10
5.102076e+00	4.328543e-07
5.107572e+00	4.531643e-05
5.113069e+00	8.863756e-04
5.118566e+00	3.239139e-03
5.124062e+00	2.216094e-03
5.129559e+00	6.367742e-04
5.135056e+00	5.120428e-03
5.140552e+00	1.377472e-02
5.146049e+00	6.932297e-03
5.151545e+00	6.561735e-04
5.157041e+00	3.007532e-04
5.162538e+00	3.581214e-03
5.168034e+00	8.287708e-03
5.173530e+00	3.690812e-03
5.179026e+00	6.994571e-04
5.184522e+00	2.846812e-04
5.190019e+00	3.576980e-05
5.195515e+00	8.521686e-07
5.201011e+00	3.794326e-09
5.206507e+00	2.927438e-10
5.212003e+00	1.890069e-07
5.217498e+00	2.304749e-05
5.222994e+00	5.250725e-04
5.228490e+00	2.235714e-03
5.233986e+00	1.839335e-03
5.239482e+00	1.159069e-03
5.244977e+00	2.418240e-03
5.250473e+00	1.220077e-03
5.255968e+00	5.598433e-04
5.261464e+00	5.519844e-03
5.266959e+00	1.276097e-02
5.272455e+00	5.513735e-03
5.277950e+00	4.450989e-04
5.283446e+00	6.712979e-06
5.288941e+00	1.891569e-08
5.294436e+00	9.958120e-12
5.299932e+00	1.745460e-11
5.305427e+00	3.313078e-08
5.310922e+00	1.174902e-05
5.316417e+00	7.784299e-04
5.321912e+00	9.635753e-03
5.327407e+00	2.228435e-02
5.332902e+00	9.628585e-03
5.338397e+00	7.772721e-04
5.343892e+00	1.172281e-05
5.349387e+00	3.303230e-08
5.354882e+00	1.738977e-11
5.360376e+00	4.485324e-12
5.365871e+00	3.971510e-09
5.371366e+00	6.570002e-07
5.376860e+00	2.030596e-05
5.382355e+00	1.172546e-04
5.387849e+00	1.264983e-04
5.393344e+00	2.564915e-05
5.398838e+00	3.513747e-05
5.404333e+00	1.433053e-03
5.409827e+00	1.122614e-02
5.415321e+00	1.643364e-02
5.420816e+00	4.740781e-03
5.426310e+00	3.805133e-03
5.431804e+00	9.633878e-03
5.437298e+00	4.877681e-03
5.442792e+00	1.733782e-03
5.448286e+00	1.001975e-02
5.453780e+00	1.465307e-02
5.459274e+00	4.006770e-03
5.464768e+00	2.049650e-04
5.470262e+00	6.235349e-05
5.475756e+00	2.532548e-03
5.481250e+00	1.983934e-02
5.486743e+00	2.903659e-02
5.492237e+00	7.939846e-03
5.497731e+00	4.056269e-04
5.503224e+00	3.871592e-06
5.508718e+00	7.166073e-09
5.514211e+00	1.710532e-07
5.519705e+00	2.085793e-05
5.525198e+00	4.751878e-04
5.530691e+00	2.022589e-03
5.536185e+00	1.608414e-03
5.541678e+00	2.389662e-04
5.547171e+00	6.633203e-06
5.552664e+00	3.439998e-08
5.558158e+00	3.333045e-11
5.563651e+00	0.000000e+00
5.569144e+00	0.000000e+00
5.574637e+00	1.083241e-11
5.580130e+00	2.661996e-08
5.585622e+00	1.225733e-05
5.591115e+00	1.154668e-03
5.596608e+00	2.310012e-02
5.602101e+00	9.948292e-02
5.607594e+00	9.026178e-02
5.613086e+00	1.658867e-02
5.618579e+00	5.965026e-04
5.624071e+00	4.104231e-06
5.629564e+00	5.338123e-09
5.635056e+00	3.946523e-10
5.640549e+00	3.492153e-07
5.646041e+00	5.815105e-05
5.651534e+00	1.826677e-03
5.657026e+00	1.097179e-02
5.662518e+00	1.297862e-02
5.668010e+00	3.229256e-03
5.673502e+00	1.569779e-03
5.678995e+00	9.388643e-03
5.684487e+00	1.179475e-02
5.689979e+00	2.769001e-03
5.695471e+00	1.214523e-04
5.700963e+00	9.976470e-07
5.706454e+00	9.873813e-07
5.711946e+00	7.607889e-05
5.717438e+00	1.096888e-03
5.722930e+00	2.954667e-03
5.728421e+00	1.486973e-03
5.733913e+00	1.398124e-04
5.739405e+00	2.456046e-06
5.744896e+00	8.060749e-09
5.750388e+00	4.942680e-12
5.755879e+00	0.000000e+00
5.761371e+00	0.000000e+00
5.766862e+00	4.151785e-11
5.772353e+00	4.987244e-08
5.777844e+00	1.119269e-05
5.783336e+00	4.693065e-04
5.788827e+00	3.676434e-03
5.794318e+00	5.380822e-03
5.799809e+00	1.481259e-03
5.805300e+00	5.037736e-04
5.810791e+00	3.745069e-03
5.816282e+00	7.722597e-03
5.821773e+00	5.081593e-03
5.827264e+00	7.765080e-03
5.832754e+00	2.116035e-02
5.838245e+00	1.681619e-02
5.843736e+00	3.545811e-03
5.849226e+00	3.531744e-03
5.854717e+00	7.857241e-03
5.860207e+00	3.394477e-03
5.865698e+00	2.740207e-04
5.871188e+00	4.132778e-06
5.876679e+00	1.164526e-08
5.882169e+00	6.130616e-12
5.887659e+00	0.000000e+00
5.893150e+00	0.000000e+00
5.898640e+00	2.764878e-41
5.904130e+00	4.505736e-38
5.909620e+00	1.371840e-35
5.915110e+00	3.121681e-12
5.920600e+00	7.122696e-09
5.926090e+00	3.116797e-06
5.931580e+00	2.798628e-04
5.937070e+00	5.692073e-03
5.942560e+00	2.840804e-02
5.948049e+00	3.365170e-02
5.953539e+00	8.550783e-03
5.959029e+00	4.330061e-04
5.964518e+00	4.235032e-06
5.970008e+00	8.338283e-09
5.975497e+00	3.545342e-07
5.980987e+00	5.864954e-05
5.986476e+00	1.812686e-03
5.991966e+00	1.046716e-02
5.997455e+00	1.129241e-02
6.002944e+00	2.302738e-03
6.008433e+00	1.602590e-03
6.013922e+00	1.612135e-02
6.019412e+00	3.200865e-02
6.024901e+00	1.187402e-02
6.030390e+00	8.234713e-04
6.035879e+00	7.351697e-05
6.041368e+00	1.432853e-03
6.046856e+00	6.129129e-03
6.052345e+00	5.112551e-03
6.057834e+00	1.108665e-03
6.063323e+00	1.262276e-04
6.068811e+00	5.531098e-06
6.074300e+00	5.190370e-08
6.079788e+00	9.237790e-11
6.085277e+00	3.077707e-14
6.090765e+00	0.000000e+00
6.096254e+00	0.000000e+00
6.101742e+00	0.000000e+00
6.107230e+00	0.000000e+00
6.112719e+00	0.000000e+00
6.118207e+00	0.000000e+00
6.123695e+00	0.000000e+00
6.129183e+00	0.000000e+00
6.134671e+00	0.000000e+00
6.140159e+00	0.000000e+00
6.145647e+00	0.000000e+00
6.151135e+00	0.000000e+00
6.156623e+00	0.000000e+00
6.162111e+00	0.000000e+00
6.167598e+00	0.000000e+00
6.173086e+00	0.000000e+00
6.178574e+00	0.000000e+00
6.184061e+00	7.768318e-11
6.189549e+00	1.086888e-07
6.195036e+00	2.841127e-05
6.200524e+00	1.387537e-03
6.206011e+00	1.266038e-02
6.211499e+00	2.158227e-02
6.216986e+00	6.873781e-03
6.222473e+00	4.090179e-04
6.227960e+00	4.547128e-06
6.233447e+00	9.444525e-09
6.238935e+00	1.404242e-11
6.244422e+00	1.691141e-08
6.249909e+00	5.148939e-06
6.255395e+00	2.928895e-04
6.260882e+00	3.112705e-03
6.266369e+00	6.180452e-03
6.271856e+00	2.292719e-03
6.277343e+00	1.590423e-04
6.282829e+00	2.909289e-05
6.288316e+00	9.732482e-04
6.293802e+00	6.545753e-03
6.299289e+00	8.225198e-03
6.304775e+00	1.931844e-03
6.310262e+00	1.041411e-04
6.315748e+00	9.638600e-05
6.321234e+00	7.073711e-04
6.326721e+00	5.865058e-03
6.332207e+00	9.981863e-03
6.337693e+00	3.179059e-03
6.343179e+00	1.892228e-04
6.348665e+00	1.289182e-05
6.354151e+00	3.883907e-04
6.359637e+00	2.612210e-03
6.365123e+00	3.290375e-03
6.370609e+00	1.105958e-03
6.376095e+00	2.660995e-03
6.381580e+00	3.846725e-03
6.387066e+00	1.217809e-03
6.392552e+00	4.297444e-03
6.398037e+00	2.567203e-02
6.403523e+00	4.429248e-02
6.409008e+00	2.115419e-02
6.414494e+00	1.187282e-02
6.419979e+00	3.072638e-02
6.425464e+00	1.886651e-02
6.430949e+00	6.429471e-03
6.436435e+00	4.173022e-03
6.441920e+00	7.153268e-04
6.447405e+00	2.312254e-05
6.452890e+00	2.357421e-07
6.458375e+00	8.635684e-06
6.463860e+00	1.450170e-04
6.469345e+00	4.549852e-04
6.474829e+00	2.667004e-04
6.480314e+00	2.920776e-05
6.485799e+00	5.976144e-07
6.491284e+00	2.284504e-09
6.496768e+00	2.430386e-11
6.502253e+00	2.007506e-08
6.507737e+00	3.321025e-06
6.513222e+00	1.026997e-04
6.518706e+00	6.077904e-04
6.524190e+00	1.376654e-03
6.529675e+00	6.855674e-03
6.535159e+00	1.147229e-02
6.540643e+00	3.693385e-03
6.546127e+00	1.698002e-03
6.551611e+00	9.964353e-03
6.557095e+00	1.274937e-02
6.562579e+00	6.697747e-03
6.568063e+00	1.348017e-02
6.573547e+00	1.215702e-02
6.579031e+00	1.474853e-02
6.584515e+00	1.614508e-02
6.589998e+00	4.425894e-03
6.595482e+00	2.654500e-04
6.600965e+00	2.194194e-04
6.606449e+00	5.197417e-03
6.611932e+00	2.459756e-02
6.617416e+00	2.378030e-02
6.622899e+00	4.877037e-03
6.628382e+00	2.153527e-04
6.633866e+00	3.691766e-06
6.639349e+00	1.026114e-04
6.644832e+00	1.790256e-03
6.650315e+00	8.316361e-03
6.655798e+00	8.419263e-03
6.661281e+00	1.668743e-03
6.666764e+00	6.257108e-05
6.672247e+00	4.397422e-07
6.677730e+00	5.904753e-10
6.683212e+00	9.588150e-09
6.688695e+00	1.361871e-06
6.694178e+00	3.618278e-05
6.699660e+00	1.834206e-04
6.705143e+00	2.377398e-04
6.710625e+00	2.581659e-04
6.716108e+00	4.560006e-04
6.721590e+00	4.671802e-03
6.727072e+00	1.254568e-02
6.732555e+00	6.314329e-03
6.738037e+00	6.124811e-04
6.743519e+00	1.039705e-04
6.749001e+00	1.012951e-04
6.754483e+00	3.505657e-04
6.759965e+00	1.430032e-03
6.765447e+00	1.269261e-03
6.770929e+00	3.085430e-03
6.776411e+00	1.197595e-02
6.781892e+00	9.267187e-03
6.787374e+00	2.182940e-03
6.792856e+00	2.718033e-03
6.798337e+00	1.925978e-03
6.803819e+00	3.771395e-03
6.809300e+00	1.219907e-02
6.814782e+00	1.521779e-02
6.820263e+00	4.746336e-03
6.825744e+00	3.011097e-04
6.831226e+00	3.691450e-06
6.836707e+00	8.619562e-09
6.842188e+00	3.809648e-12
6.847669e+00	6.756238e-12
6.853150e+00	3.785914e-09
6.858631e+00	3.963553e-07
6.864112e+00	7.752590e-06
6.869593e+00	2.833221e-05
6.875074e+00	2.033704e-05
6.880554e+00	1.237258e-04
6.886035e+00	2.762701e-03
6.891516e+00	1.177478e-02
6.896996e+00	9.772235e-03
6.902477e+00	3.424045e-03
6.907957e+00	1.919694e-03
6.913437e+00	1.679161e-03
6.918918e+00	9.761543e-03
6.924398e+00	1.445865e-02
6.929878e+00	4.283267e-03
6.935358e+00	2.459427e-04
6.940839e+00	2.687884e-06
6.946319e+00	5.537951e-09
6.951799e+00	2.133795e-12
6.957279e+00	0.000000e+00
6.962758e+00	0.000000e+00
6.968238e+00	4.894472e-13
6.973718e+00	1.991533e-09
6.979198e+00	1.513970e-06
6.984677e+00	2.150281e-04
6.990157e+00	5.705862e-03
6.995636e+00	2.828756e-02
7.001116e+00	2.620181e-02
7.006595e+00	4.573302e-03
7.012075e+00	5.045413e-04
7.017554e+00	6.117932e-04
7.023033e+00	2.347644e-04
7.028512e+00	4.460249e-04
7.033992e+00	1.140942e-03
7.039471e+00	3.379441e-03
7.044950e+00	6.104005e-03
7.050429e+00	2.256512e-03
7.055907e+00	1.563780e-04
7.061386e+00	2.742348e-06
7.066865e+00	2.221309e-05
7.072344e+00	1.379126e-04
7.077822e+00	6.990672e-04
7.083301e+00	5.989071e-03
7.088780e+00	1.183740e-02
7.094258e+00	4.390856e-03
7.099736e+00	3.043906e-04
7.105215e+00	2.616865e-05
7.110693e+00	1.264429e-03
7.116171e+00	1.344127e-02
7.121649e+00	2.706149e-02
7.127128e+00	1.733605e-02
7.132606e+00	2.786863e-02
7.138084e+00	1.863035e-02
7.143562e+00	4.037844e-03
7.149040e+00	8.338348e-03
7.154517e+00	7.671288e-03
7.159995e+00	1.327470e-03
7.165473e+00	4.291838e-05
7.170950e+00	2.592449e-07
7.176428e+00	2.925669e-10
7.181906e+00	4.653612e-36
7.187383e+00	2.272711e-34
7.192861e+00	2.073702e-33
7.198338e+00	1.759509e-12
7.203815e+00	4.530824e-09
7.209292e+00	2.179772e-06
7.214770e+00	1.959264e-04
7.220247e+00	3.290206e-03
7.225724e+00	1.032289e-02
7.231201e+00	6.051010e-03
7.236678e+00	6.626779e-04
7.242155e+00	1.355893e-05
7.247631e+00	5.601606e-08
7.253108e+00	1.483888e-06
7.258585e+00	9.831243e-05
7.264061e+00	1.216955e-03
7.269538e+00	2.814420e-03
7.275015e+00	1.216050e-03
7.280491e+00	9.816713e-05
7.285967e+00	2.302975e-06
7.291444e+00	1.360579e-04
7.296920e+00	4.205067e-03
7.302396e+00	2.429650e-02
7.307872e+00	2.719243e-02
7.313348e+00	1.761880e-02
7.318825e+00	2.879260e-02
7.324300e+00	1.479166e-02
7.329776e+00	2.027343e-02
7.335252e+00	2.827532e-02
7.340728e+00	9.353004e-03
7.346204e+00	1.166761e-02
7.351679e+00	2.034486e-02
7.357155e+00	3.392219e-02
7.362631e+00	2.857081e-02
7.368106e+00	5.156332e-03
7.373582e+00	1.919715e-04
7.379057e+00	7.065087e-04
7.384532e+00	8.730338e-03
7.390007e+00	2.019771e-02
7.395483e+00	9.034773e-03
7.400958e+00	3.187685e-03
7.406433e+00	3.855930e-03
7.411908e+00	1.643108e-03
7.417383e+00	4.042032e-03
7.422858e+00	6.746006e-03
7.428332e+00	2.148093e-03
7.433807e+00	1.323131e-04
7.439282e+00	4.053351e-04
7.444756e+00	6.782962e-03
7.450231e+00	2.128127e-02
7.455706e+00	1.247452e-02
7.461180e+00	1.366150e-03
7.466654e+00	2.795254e-05
7.472129e+00	1.068543e-07
7.477603e+00	7.631524e-11
7.483077e+00	0.000000e+00
7.488551e+00	4.290213e-12
7.494025e+00	7.008287e-09
7.499499e+00	2.160578e-06
7.504973e+00	1.324043e-04
7.510447e+00	2.036766e-03
7.515921e+00	1.183795e-02
7.521395e+00	2.241622e-02
7.526869e+00	9.355397e-03
7.532342e+00	1.012036e-03
7.537816e+00	2.162327e-03
7.543289e+00	5.774406e-03
7.548763e+00	3.306128e-03
7.554236e+00	3.608876e-04
7.559709e+00	8.284116e-06
7.565183e+00	6.052358e-05
7.570656e+00	7.799387e-04
7.576129e+00	2.087511e-03
7.581602e+00	1.385710e-03
7.587075e+00	2.660691e-04
7.592548e+00	3.997889e-05
7.598021e+00	9.649283e-04
7.603494e+00	6.488908e-03
7.608967e+00	8.155205e-03
7.614439e+00	1.953096e-03
7.619912e+00	3.961064e-04
7.625384e+00	9.069972e-04
7.630857e+00	9.569754e-04
7.636329e+00	2.673107e-04
7.641802e+00	5.930772e-05
7.647274e+00	6.333674e-04
7.652746e+00	1.705660e-03
7.658219e+00	8.595353e-04
7.663691e+00	1.605096e-04
7.669163e+00	1.376195e-03
7.674635e+00	4.859008e-03
7.680107e+00	4.436311e-03
7.685579e+00	6.623399e-03
7.691050e+00	1.774680e-02
7.696522e+00	1.088420e-02
7.701994e+00	5.251546e-03
7.707465e+00	6.120808e-03
7.712937e+00	3.070112e-03
7.718409e+00	5.282721e-03
7.723880e+00	3.550091e-03
7.729351e+00	4.527431e-04
7.734823e+00	1.152144e-05
7.740294e+00	3.586974e-05
7.745765e+00	3.395659e-04
7.751236e+00	9.720019e-04
7.756707e+00	2.600959e-03
7.762178e+00	3.288674e-03
7.767649e+00	4.662347e-03
7.773120e+00	5.486852e-03
7.778591e+00	2.181870e-03
7.784061e+00	2.997962e-04
7.789532e+00	1.030491e-05
7.795003e+00	7.120656e-08
7.800473e+00	9.328025e-11
7.805944e+00	3.159666e-11
7.811414e+00	3.256283e-08
7.816884e+00	6.274707e-06
7.822355e+00	2.261228e-04
7.827825e+00	1.546935e-03
7.833295e+00	2.558089e-03
7.838765e+00	4.875235e-03
7.844235e+00	1.055057e-02
7.849705e+00	6.469735e-03
7.855175e+00	8.082117e-04
7.860645e+00	4.625208e-05
7.866115e+00	1.020484e-03
7.871584e+00	7.222329e-03
7.877054e+00	9.601405e-03
7.882523e+00	2.398328e-03
7.887993e+00	1.547630e-04
7.893462e+00	8.271556e-04
7.898932e+00	3.019093e-03
7.904401e+00	2.061269e-03
7.909870e+00	2.629306e-04
7.915339e+00	6.266080e-06
7.915837e+00	4.105235e-06