File: cif_pxrd_calculator/txt/iq/li0.5tio2_li2fev3o8_180011.txt
# Q [Å^-1]	I_scaled [a.u.]
0.000000e+00	0.000000e+00
5.516321e-03	0.000000e+00
1.103264e-02	0.000000e+00
1.654896e-02	0.000000e+00
2.206528e-02	0.000000e+00
2.758161e-02	0.000000e+00
3.309793e-02	0.000000e+00
3.861425e-02	0.000000e+00
4.413057e-02	0.000000e+00
4.964689e-02	0.000000e+00
5.516321e-02	0.000000e+00
6.067952e-02	0.000000e+00
6.619584e-02	0.000000e+00
7.171216e-02	0.000000e+00
7.722848e-02	0.000000e+00
8.274479e-02	0.000000e+00
8.826111e-02	0.000000e+00
9.377742e-02	0.000000e+00
9.929374e-02	0.000000e+00
1.048101e-01	0.000000e+00
1.103264e-01	0.000000e+00
1.158427e-01	0.000000e+00
1.213590e-01	0.000000e+00
1.268753e-01	0.000000e+00
1.323916e-01	0.000000e+00
1.379079e-01	0.000000e+00
1.434242e-01	0.000000e+00
1.489405e-01	0.000000e+00
1.544568e-01	0.000000e+00
1.599731e-01	0.000000e+00
1.654894e-01	0.000000e+00
1.710057e-01	0.000000e+00
1.765220e-01	0.000000e+00
1.820383e-01	0.000000e+00
1.875546e-01	0.000000e+00
1.930709e-01	0.000000e+00
1.985872e-01	0.000000e+00
2.041035e-01	0.000000e+00
2.096198e-01	0.000000e+00
2.151361e-01	0.000000e+00
2.206524e-01	0.000000e+00
2.261686e-01	0.000000e+00
2.316849e-01	0.000000e+00
2.372012e-01	0.000000e+00
2.427175e-01	0.000000e+00
2.482338e-01	0.000000e+00
2.537500e-01	0.000000e+00
2.592663e-01	0.000000e+00
2.647826e-01	0.000000e+00
2.702988e-01	0.000000e+00
2.758151e-01	0.000000e+00
2.813314e-01	0.000000e+00
2.868476e-01	0.000000e+00
2.923639e-01	0.000000e+00
2.978802e-01	0.000000e+00
3.033964e-01	0.000000e+00
3.089127e-01	0.000000e+00
3.144289e-01	0.000000e+00
3.199452e-01	0.000000e+00
3.254614e-01	0.000000e+00
3.309776e-01	0.000000e+00
3.364939e-01	0.000000e+00
3.420101e-01	0.000000e+00
3.475263e-01	0.000000e+00
3.530426e-01	0.000000e+00
3.585588e-01	0.000000e+00
3.640750e-01	0.000000e+00
3.695912e-01	0.000000e+00
3.751075e-01	0.000000e+00
3.806237e-01	0.000000e+00
3.861399e-01	0.000000e+00
3.916561e-01	0.000000e+00
3.971723e-01	0.000000e+00
4.026885e-01	0.000000e+00
4.082047e-01	0.000000e+00
4.137209e-01	0.000000e+00
4.192371e-01	0.000000e+00
4.247533e-01	0.000000e+00
4.302695e-01	0.000000e+00
4.357856e-01	0.000000e+00
4.413018e-01	0.000000e+00
4.468180e-01	0.000000e+00
4.523342e-01	0.000000e+00
4.578503e-01	0.000000e+00
4.633665e-01	0.000000e+00
4.688826e-01	0.000000e+00
4.743988e-01	0.000000e+00
4.799149e-01	0.000000e+00
4.854311e-01	0.000000e+00
4.909472e-01	0.000000e+00
4.964634e-01	0.000000e+00
5.019795e-01	1.952115e-40
5.074956e-01	3.705332e-37
5.130118e-01	1.314005e-34
5.185279e-01	8.705927e-33
5.240440e-01	1.077659e-31
5.295601e-01	2.492272e-31
5.350762e-01	1.076857e-31
5.405923e-01	8.692979e-33
5.461084e-01	1.311075e-34
5.516245e-01	3.694319e-37
5.571406e-01	1.944865e-40
5.626567e-01	0.000000e+00
5.681728e-01	0.000000e+00
5.736889e-01	0.000000e+00
5.792049e-01	0.000000e+00
5.847210e-01	0.000000e+00
5.902371e-01	0.000000e+00
5.957531e-01	0.000000e+00
6.012692e-01	0.000000e+00
6.067852e-01	0.000000e+00
6.123013e-01	0.000000e+00
6.178173e-01	0.000000e+00
6.233333e-01	0.000000e+00
6.288494e-01	0.000000e+00
6.343654e-01	0.000000e+00
6.398814e-01	0.000000e+00
6.453974e-01	0.000000e+00
6.509134e-01	0.000000e+00
6.564294e-01	0.000000e+00
6.619454e-01	0.000000e+00
6.674614e-01	0.000000e+00
6.729774e-01	0.000000e+00
6.784934e-01	0.000000e+00
6.840093e-01	0.000000e+00
6.895253e-01	0.000000e+00
6.950413e-01	0.000000e+00
7.005572e-01	0.000000e+00
7.060732e-01	0.000000e+00
7.115891e-01	0.000000e+00
7.171051e-01	0.000000e+00
7.226210e-01	0.000000e+00
7.281369e-01	0.000000e+00
7.336528e-01	0.000000e+00
7.391688e-01	0.000000e+00
7.446847e-01	0.000000e+00
7.502006e-01	0.000000e+00
7.557165e-01	0.000000e+00
7.612323e-01	0.000000e+00
7.667482e-01	0.000000e+00
7.722641e-01	0.000000e+00
7.777800e-01	0.000000e+00
7.832958e-01	0.000000e+00
7.888117e-01	0.000000e+00
7.943276e-01	0.000000e+00
7.998434e-01	0.000000e+00
8.053592e-01	0.000000e+00
8.108751e-01	0.000000e+00
8.163909e-01	0.000000e+00
8.219067e-01	0.000000e+00
8.274225e-01	0.000000e+00
8.329383e-01	0.000000e+00
8.384541e-01	0.000000e+00
8.439699e-01	0.000000e+00
8.494857e-01	0.000000e+00
8.550015e-01	0.000000e+00
8.605172e-01	0.000000e+00
8.660330e-01	0.000000e+00
8.715488e-01	0.000000e+00
8.770645e-01	0.000000e+00
8.825803e-01	0.000000e+00
8.880960e-01	0.000000e+00
8.936117e-01	0.000000e+00
8.991274e-01	0.000000e+00
9.046431e-01	0.000000e+00
9.101588e-01	0.000000e+00
9.156745e-01	0.000000e+00
9.211902e-01	0.000000e+00
9.267059e-01	0.000000e+00
9.322216e-01	0.000000e+00
9.377373e-01	0.000000e+00
9.432529e-01	0.000000e+00
9.487686e-01	0.000000e+00
9.542842e-01	0.000000e+00
9.597998e-01	0.000000e+00
9.653155e-01	0.000000e+00
9.708311e-01	7.274469e-41
9.763467e-01	8.738302e-38
9.818623e-01	1.961105e-35
9.873779e-01	8.222862e-34
9.928935e-01	7.231787e-11
9.984091e-01	2.169019e-07
1.003925e+00	1.215428e-04
1.009440e+00	1.272457e-02
1.014956e+00	2.488887e-01
1.020471e+00	9.095267e-01
1.025987e+00	6.209746e-01
1.031502e+00	7.921008e-02
1.037018e+00	1.887896e-03
1.042533e+00	8.531171e-05
1.048049e+00	5.934918e-03
1.053564e+00	8.556819e-02
1.059080e+00	2.304935e-01
1.064595e+00	1.159987e-01
1.070111e+00	1.090676e-02
1.075626e+00	1.915960e-04
1.081142e+00	6.288187e-07
1.086657e+00	3.855782e-10
1.092173e+00	0.000000e+00
1.097688e+00	0.000000e+00
1.103203e+00	0.000000e+00
1.108719e+00	0.000000e+00
1.114234e+00	0.000000e+00
1.119750e+00	0.000000e+00
1.125265e+00	0.000000e+00
1.130780e+00	0.000000e+00
1.136296e+00	0.000000e+00
1.141811e+00	0.000000e+00
1.147326e+00	0.000000e+00
1.152842e+00	0.000000e+00
1.158357e+00	0.000000e+00
1.163872e+00	0.000000e+00
1.169388e+00	0.000000e+00
1.174903e+00	0.000000e+00
1.180418e+00	0.000000e+00
1.185933e+00	0.000000e+00
1.191449e+00	0.000000e+00
1.196964e+00	7.414648e-13
1.202479e+00	3.016978e-09
1.207994e+00	2.293517e-06
1.213510e+00	3.257466e-04
1.219025e+00	8.643825e-03
1.224540e+00	4.285290e-02
1.230055e+00	3.969197e-02
1.235570e+00	6.868679e-03
1.241086e+00	2.220710e-04
1.246601e+00	1.341401e-06
1.252116e+00	1.513819e-09
1.257631e+00	1.028411e-41
1.263146e+00	3.084497e-38
1.268661e+00	1.728423e-35
1.274176e+00	1.809523e-33
1.279692e+00	3.539372e-32
1.285207e+00	1.293411e-31
1.290722e+00	8.830696e-32
1.296237e+00	1.126423e-32
1.301752e+00	2.684456e-34
1.307267e+00	1.195251e-36
1.312782e+00	9.942835e-40
1.318297e+00	0.000000e+00
1.323812e+00	0.000000e+00
1.329327e+00	0.000000e+00
1.334842e+00	0.000000e+00
1.340357e+00	0.000000e+00
1.345872e+00	0.000000e+00
1.351387e+00	0.000000e+00
1.356902e+00	0.000000e+00
1.362417e+00	0.000000e+00
1.367932e+00	0.000000e+00
1.373447e+00	0.000000e+00
1.378961e+00	0.000000e+00
1.384476e+00	0.000000e+00
1.389991e+00	0.000000e+00
1.395506e+00	0.000000e+00
1.401021e+00	0.000000e+00
1.406536e+00	0.000000e+00
1.412051e+00	0.000000e+00
1.417565e+00	0.000000e+00
1.423080e+00	0.000000e+00
1.428595e+00	0.000000e+00
1.434110e+00	0.000000e+00
1.439625e+00	0.000000e+00
1.445139e+00	0.000000e+00
1.450654e+00	0.000000e+00
1.456169e+00	0.000000e+00
1.461684e+00	0.000000e+00
1.467198e+00	0.000000e+00
1.472713e+00	0.000000e+00
1.478228e+00	0.000000e+00
1.483742e+00	0.000000e+00
1.489257e+00	0.000000e+00
1.494772e+00	0.000000e+00
1.500286e+00	0.000000e+00
1.505801e+00	0.000000e+00
1.511316e+00	0.000000e+00
1.516830e+00	0.000000e+00
1.522345e+00	0.000000e+00
1.527859e+00	0.000000e+00
1.533374e+00	0.000000e+00
1.538888e+00	0.000000e+00
1.544403e+00	0.000000e+00
1.549918e+00	0.000000e+00
1.555432e+00	0.000000e+00
1.560947e+00	7.725663e-41
1.566461e+00	1.989397e-37
1.571975e+00	9.570955e-35
1.577490e+00	8.602749e-33
1.583004e+00	1.444666e-31
1.588519e+00	4.532590e-31
1.594033e+00	2.657636e-31
1.599548e+00	3.036421e-32
1.605062e+00	4.571498e-33
1.610576e+00	2.332992e-33
1.616091e+00	2.552506e-34
1.621605e+00	5.223469e-36
1.627120e+00	6.808526e-37
1.632634e+00	9.386549e-35
1.638148e+00	2.490760e-33
1.643662e+00	1.234827e-32
1.649177e+00	1.143743e-32
1.654691e+00	2.291859e-11
1.660205e+00	3.734888e-08
1.665720e+00	1.137144e-05
1.671234e+00	6.468469e-04
1.676748e+00	6.874414e-03
1.682262e+00	1.364954e-02
1.687776e+00	5.063473e-03
1.693291e+00	3.509354e-04
1.698805e+00	4.544163e-06
1.704319e+00	4.080405e-08
1.709833e+00	2.639577e-05
1.715347e+00	4.366608e-03
1.720861e+00	1.349591e-01
1.726375e+00	7.793069e-01
1.731889e+00	8.407423e-01
1.737403e+00	1.694593e-01
1.742918e+00	6.381403e-03
1.748432e+00	4.489676e-05
1.753946e+00	5.901495e-08
1.759460e+00	1.449296e-11
1.764974e+00	0.000000e+00
1.770488e+00	0.000000e+00
1.776002e+00	0.000000e+00
1.781515e+00	0.000000e+00
1.787029e+00	0.000000e+00
1.792543e+00	0.000000e+00
1.798057e+00	0.000000e+00
1.803571e+00	0.000000e+00
1.809085e+00	0.000000e+00
1.814599e+00	0.000000e+00
1.820113e+00	0.000000e+00
1.825627e+00	0.000000e+00
1.831140e+00	0.000000e+00
1.836654e+00	0.000000e+00
1.842168e+00	0.000000e+00
1.847682e+00	0.000000e+00
1.853195e+00	0.000000e+00
1.858709e+00	0.000000e+00
1.864223e+00	0.000000e+00
1.869737e+00	0.000000e+00
1.875250e+00	0.000000e+00
1.880764e+00	0.000000e+00
1.886278e+00	0.000000e+00
1.891791e+00	0.000000e+00
1.897305e+00	5.307046e-13
1.902819e+00	8.648536e-10
1.908332e+00	2.633179e-07
1.913846e+00	1.497844e-05
1.919359e+00	1.591844e-04
1.924873e+00	3.160698e-04
1.930386e+00	1.172502e-04
1.935900e+00	8.126286e-06
1.941413e+00	1.052250e-07
1.946927e+00	2.545622e-10
1.952440e+00	1.150580e-13
1.957954e+00	1.317901e-31
1.963467e+00	4.872517e-32
1.968981e+00	5.814811e-10
1.974494e+00	5.996935e-07
1.980007e+00	1.155503e-04
1.985521e+00	4.159693e-03
1.991034e+00	2.797690e-02
1.996547e+00	3.515490e-02
2.002061e+00	8.253163e-03
2.007574e+00	3.619955e-04
2.013087e+00	2.966429e-06
2.018601e+00	1.797993e-08
2.024114e+00	1.189892e-05
2.029627e+00	1.968534e-03
2.035140e+00	6.089735e-02
2.040654e+00	3.566505e-01
2.046167e+00	4.688218e-01
2.051680e+00	3.582157e-01
2.057193e+00	1.680755e-01
2.062706e+00	1.811203e-02
2.068219e+00	3.708504e-04
2.073732e+00	1.716207e-04
2.079246e+00	8.312430e-03
2.084759e+00	7.584556e-02
2.090272e+00	1.292946e-01
2.095785e+00	4.117934e-02
2.101298e+00	2.473068e-03
2.106811e+00	2.407073e-03
2.112324e+00	4.654885e-02
2.117837e+00	1.701056e-01
2.123350e+00	1.161388e-01
2.128863e+00	1.481439e-02
2.134375e+00	3.530518e-04
2.139888e+00	1.571960e-06
2.145401e+00	1.307653e-09
2.150914e+00	1.485573e-33
2.156427e+00	2.400395e-34
2.161940e+00	1.321627e-32
2.167453e+00	1.404568e-31
2.172965e+00	2.788849e-31
2.178478e+00	1.034560e-31
2.183991e+00	7.170248e-33
2.189504e+00	9.284553e-35
2.195016e+00	2.246136e-37
2.200529e+00	1.015217e-40
2.206042e+00	0.000000e+00
2.211554e+00	0.000000e+00
2.217067e+00	0.000000e+00
2.222580e+00	0.000000e+00
2.228092e+00	0.000000e+00
2.233605e+00	2.332749e-42
2.239117e+00	6.996579e-39
2.244630e+00	3.920591e-36
2.250142e+00	4.104549e-34
2.255655e+00	8.028374e-33
2.261168e+00	4.514254e-10
2.266680e+00	7.356576e-07
2.272192e+00	2.239824e-04
2.277705e+00	1.274109e-02
2.283217e+00	1.354782e-01
2.288730e+00	2.737240e-01
2.294242e+00	1.600210e-01
2.299754e+00	1.463347e-01
2.305267e+00	6.033089e-02
2.310779e+00	4.863231e-03
2.316291e+00	7.334406e-05
2.321804e+00	2.066671e-07
2.327316e+00	1.087994e-10
2.332828e+00	5.358015e-37
2.338340e+00	1.202480e-34
2.343853e+00	5.041966e-33
2.349365e+00	3.949754e-32
2.354877e+00	5.780807e-32
2.360389e+00	1.580720e-32
2.365901e+00	8.075504e-34
2.371413e+00	7.707836e-36
2.376926e+00	1.374496e-38
2.382438e+00	4.579337e-42
2.387950e+00	0.000000e+00
2.393462e+00	0.000000e+00
2.398974e+00	0.000000e+00
2.404486e+00	0.000000e+00
2.409998e+00	0.000000e+00
2.415510e+00	0.000000e+00
2.421022e+00	0.000000e+00
2.426533e+00	5.349499e-11
2.432045e+00	1.182679e-07
2.437557e+00	4.885046e-05
2.443069e+00	3.769803e-03
2.448581e+00	5.435216e-02
2.454093e+00	1.464074e-01
2.459605e+00	7.368135e-02
2.465116e+00	6.927877e-03
2.470628e+00	1.217001e-04
2.476140e+00	3.994201e-07
2.481651e+00	2.449159e-10
2.487163e+00	0.000000e+00
2.492675e+00	0.000000e+00
2.498186e+00	0.000000e+00
2.503698e+00	3.531675e-41
2.509210e+00	7.807904e-38
2.514721e+00	3.225049e-35
2.520233e+00	2.488779e-33
2.525744e+00	1.237819e-09
2.531256e+00	1.096021e-06
2.536767e+00	1.813130e-04
2.542279e+00	5.603857e-03
2.547790e+00	3.235887e-02
2.553302e+00	3.490986e-02
2.558813e+00	7.044192e-03
2.564325e+00	5.918838e-04
2.569836e+00	2.562808e-03
2.575347e+00	3.748165e-03
2.580859e+00	1.024908e-03
2.586370e+00	5.235999e-05
2.591881e+00	4.999675e-07
2.597393e+00	3.373410e-07
2.602904e+00	1.024373e-04
2.608415e+00	5.826988e-03
2.613926e+00	6.192675e-02
2.619437e+00	1.229591e-01
2.624949e+00	4.561326e-02
2.630460e+00	3.161330e-03
2.635971e+00	4.093517e-05
2.641482e+00	9.903109e-08
2.646993e+00	4.476047e-11
2.652504e+00	4.859333e-32
2.658015e+00	8.408782e-33
2.663526e+00	2.728203e-34
2.669037e+00	1.330059e-11
2.674548e+00	2.940522e-08
2.680059e+00	1.214580e-05
2.685570e+00	9.372949e-04
2.691081e+00	1.351370e-02
2.696592e+00	3.640162e-02
2.702103e+00	1.831958e-02
2.707613e+00	1.731776e-03
2.713124e+00	1.002024e-03
2.718635e+00	1.900754e-02
2.724146e+00	6.945985e-02
2.729657e+00	4.742335e-02
2.735167e+00	6.049213e-03
2.740678e+00	1.441629e-04
2.746189e+00	6.418839e-07
2.751699e+00	5.339586e-10
2.757210e+00	0.000000e+00
2.762721e+00	0.000000e+00
2.768231e+00	2.391377e-13
2.773742e+00	9.730376e-10
2.779252e+00	7.397064e-07
2.784763e+00	1.050600e-04
2.790273e+00	2.787812e-03
2.795784e+00	1.382094e-02
2.801294e+00	1.280148e-02
2.806805e+00	2.215290e-03
2.812315e+00	7.162248e-05
2.817825e+00	4.326296e-07
2.823336e+00	4.882376e-10
2.828846e+00	1.423124e-36
2.834356e+00	1.378878e-39
2.839867e+00	0.000000e+00
2.845377e+00	0.000000e+00
2.850887e+00	0.000000e+00
2.856397e+00	0.000000e+00
2.861907e+00	0.000000e+00
2.867418e+00	0.000000e+00
2.872928e+00	0.000000e+00
2.878438e+00	0.000000e+00
2.883948e+00	0.000000e+00
2.889458e+00	0.000000e+00
2.894968e+00	7.675363e-12
2.900478e+00	1.250802e-08
2.905988e+00	3.808259e-06
2.911498e+00	2.166270e-04
2.917008e+00	2.302219e-03
2.922518e+00	4.571187e-03
2.928028e+00	1.695741e-03
2.933538e+00	1.175271e-04
2.939048e+00	1.521826e-06
2.944557e+00	3.681628e-09
2.950067e+00	1.664037e-12
2.955577e+00	3.548654e-32
2.961087e+00	1.334811e-32
2.966596e+00	1.063570e-33
2.972106e+00	1.747445e-35
2.977616e+00	2.402601e-34
2.983126e+00	7.424344e-33
2.988635e+00	4.287107e-32
2.994145e+00	2.835879e-10
2.999654e+00	3.407183e-07
3.005164e+00	7.661754e-05
3.010673e+00	3.285372e-03
3.016183e+00	3.228208e-02
3.021692e+00	1.571628e-01
3.027202e+00	3.878297e-01
3.032711e+00	2.219580e-01
3.038221e+00	2.425646e-02
3.043730e+00	4.970534e-04
3.049239e+00	2.991087e-04
3.054749e+00	1.969174e-02
3.060258e+00	2.437532e-01
3.065767e+00	5.637215e-01
3.071277e+00	2.435718e-01
3.076786e+00	1.966245e-02
3.082295e+00	2.965490e-04
3.087804e+00	8.356097e-07
3.093313e+00	4.409109e-10
3.098823e+00	1.208701e-09
3.104332e+00	2.712644e-07
3.109841e+00	1.137404e-05
3.115350e+00	8.910150e-05
3.120859e+00	1.304077e-04
3.126368e+00	3.565922e-05
3.131877e+00	1.928799e-06
3.137386e+00	1.307311e-05
3.142895e+00	2.974370e-04
3.148404e+00	1.266010e-03
3.153912e+00	1.006764e-03
3.159421e+00	1.496233e-04
3.164930e+00	1.298750e-05
3.170439e+00	3.180918e-04
3.175948e+00	2.139249e-03
3.181456e+00	2.688114e-03
3.186965e+00	6.310790e-04
3.192474e+00	2.970964e-05
3.197982e+00	3.359995e-04
3.203491e+00	1.037776e-02
3.209000e+00	5.992523e-02
3.214508e+00	6.464934e-02
3.220017e+00	1.303067e-02
3.225525e+00	4.907014e-04
3.231034e+00	3.452597e-06
3.236542e+00	1.837217e-07
3.242051e+00	2.544933e-05
3.247559e+00	6.753089e-04
3.253068e+00	3.347933e-03
3.258576e+00	3.100981e-03
3.264084e+00	5.366237e-04
3.269593e+00	1.777694e-05
3.275101e+00	1.766362e-04
3.280609e+00	1.362298e-02
3.286117e+00	1.964130e-01
3.291626e+00	5.290741e-01
3.297134e+00	2.662631e-01
3.302642e+00	2.503535e-02
3.308150e+00	4.397890e-04
3.313658e+00	1.443389e-06
3.319166e+00	8.850553e-10
3.324674e+00	6.141387e-34
3.330182e+00	5.603622e-33
3.335690e+00	1.116977e-12
3.341198e+00	2.876272e-09
3.346706e+00	1.383772e-06
3.352214e+00	1.243856e-04
3.357722e+00	2.093230e-03
3.363230e+00	7.105770e-03
3.368737e+00	1.642979e-02
3.374245e+00	5.400221e-02
3.379753e+00	4.261802e-02
3.385261e+00	6.330621e-03
3.390768e+00	1.757261e-04
3.396276e+00	2.344491e-06
3.401784e+00	1.747630e-04
3.407291e+00	3.981450e-03
3.412799e+00	1.694664e-02
3.418307e+00	1.347640e-02
3.423814e+00	2.002241e-03
3.429322e+00	6.514799e-05
3.434829e+00	1.002244e-03
3.440337e+00	1.960026e-02
3.445844e+00	7.186827e-02
3.451351e+00	5.380172e-02
3.456859e+00	2.416265e-02
3.462366e+00	1.238721e-02
3.467873e+00	1.561785e-03
3.473381e+00	3.720474e-05
3.478888e+00	1.656512e-07
3.484395e+00	1.381484e-10
3.489902e+00	1.048128e-09
3.495410e+00	5.873277e-07
3.500917e+00	6.149067e-05
3.506424e+00	1.204334e-03
3.511931e+00	4.627573e-03
3.517438e+00	9.170785e-03
3.522945e+00	3.106597e-02
3.528452e+00	3.093081e-02
3.533959e+00	1.775378e-02
3.539466e+00	1.206190e-02
3.544973e+00	2.060835e-03
3.550480e+00	6.659892e-05
3.555986e+00	4.022787e-07
3.561493e+00	4.539856e-10
3.567000e+00	4.759090e-33
3.572507e+00	1.183790e-31
3.578014e+00	5.868653e-31
3.583520e+00	5.435767e-31
3.589027e+00	9.407344e-32
3.594534e+00	9.508055e-13
3.600040e+00	3.868773e-09
3.605547e+00	2.941054e-06
3.611053e+00	4.177159e-04
3.616560e+00	1.108427e-02
3.622066e+00	5.495173e-02
3.627573e+00	5.089835e-02
3.633079e+00	8.807944e-03
3.638586e+00	2.892220e-04
3.644092e+00	7.383336e-04
3.649598e+00	2.276658e-02
3.655105e+00	1.314631e-01
3.660611e+00	1.418269e-01
3.666117e+00	2.861216e-02
3.671623e+00	2.330176e-03
3.677129e+00	1.144666e-02
3.682636e+00	1.950882e-02
3.688142e+00	6.519019e-03
3.693648e+00	2.443424e-03
3.699154e+00	2.610061e-03
3.704660e+00	6.117967e-04
3.710166e+00	2.683390e-05
3.715672e+00	2.198946e-07
3.721178e+00	3.366616e-10
3.726684e+00	9.629878e-14
3.732190e+00	6.237487e-34
3.737696e+00	3.536198e-11
3.743201e+00	4.947597e-08
3.748707e+00	1.293303e-05
3.754213e+00	6.316176e-04
3.759719e+00	5.763103e-03
3.765224e+00	9.824416e-03
3.770730e+00	3.128998e-03
3.776236e+00	1.861881e-04
3.781741e+00	2.069888e-06
3.787247e+00	4.299220e-09
3.792752e+00	1.668326e-12
3.798258e+00	4.410320e-33
3.803763e+00	4.687101e-32
3.809269e+00	9.306802e-32
3.814774e+00	3.472036e-32
3.820280e+00	8.844155e-13
3.825785e+00	2.652614e-09
3.831290e+00	1.486414e-06
3.836796e+00	1.556158e-04
3.842301e+00	3.043798e-03
3.847806e+00	1.112311e-02
3.853311e+00	7.594623e-03
3.858816e+00	1.084294e-03
3.864321e+00	6.683273e-03
3.869827e+00	7.493362e-02
3.875332e+00	1.866681e-01
3.880837e+00	1.339035e-01
3.886342e+00	3.656831e-02
3.891847e+00	1.123148e-01
3.897352e+00	3.422009e-01
3.902856e+00	1.990993e-01
3.908361e+00	3.624596e-02
3.913866e+00	5.417045e-02
3.919371e+00	3.668718e-02
3.924876e+00	4.679519e-03
3.930380e+00	1.115208e-04
3.935885e+00	4.965452e-07
3.941390e+00	4.130569e-10
3.946895e+00	1.047619e-31
3.952399e+00	2.370626e-32
3.957904e+00	7.871012e-33
3.963408e+00	1.363251e-09
3.968913e+00	1.405949e-06
3.974417e+00	2.709016e-04
3.979922e+00	9.752230e-03
3.985426e+00	6.560959e-02
3.990930e+00	8.369546e-02
3.996435e+00	3.515259e-02
4.001939e+00	3.739700e-02
4.007443e+00	1.579869e-02
4.012948e+00	1.274806e-03
4.018452e+00	1.922649e-05
4.023956e+00	9.284332e-08
4.029460e+00	1.371247e-05
4.034964e+00	9.085201e-04
4.040468e+00	1.124782e-02
4.045972e+00	2.616957e-02
4.051476e+00	1.394454e-02
4.056980e+00	9.399900e-03
4.062484e+00	4.991901e-03
4.067988e+00	5.452347e-04
4.073492e+00	1.215432e-05
4.078996e+00	3.601475e-05
4.084500e+00	2.420431e-04
4.090004e+00	3.412120e-04
4.095507e+00	2.525625e-03
4.101011e+00	3.027165e-02
4.106515e+00	6.978018e-02
4.112018e+00	3.006849e-02
4.117522e+00	2.421610e-03
4.123026e+00	3.644922e-05
4.128529e+00	2.217468e-07
4.134033e+00	2.675600e-05
4.139536e+00	1.121870e-03
4.145040e+00	8.788457e-03
4.150543e+00	1.286267e-02
4.156046e+00	3.517204e-03
4.161550e+00	1.800228e-04
4.167053e+00	3.206915e-05
4.172556e+00	5.097474e-04
4.178059e+00	1.603608e-03
4.183563e+00	1.551517e-03
4.189066e+00	1.640484e-02
4.194569e+00	8.164806e-02
4.200072e+00	9.177604e-02
4.205575e+00	7.490893e-02
4.211078e+00	4.280505e-02
4.216581e+00	9.449001e-03
4.222084e+00	3.709761e-02
4.227587e+00	6.428083e-02
4.233090e+00	4.467172e-02
4.238593e+00	8.994853e-02
4.244096e+00	6.002274e-02
4.249598e+00	7.599509e-03
4.255101e+00	1.954275e-04
4.260604e+00	1.375105e-03
4.266106e+00	2.307882e-02
4.271609e+00	7.240965e-02
4.277112e+00	4.248169e-02
4.282614e+00	4.990398e-03
4.288117e+00	6.783076e-04
4.293619e+00	1.861081e-04
4.299122e+00	1.105281e-05
4.304624e+00	1.228733e-07
4.310127e+00	2.552116e-10
4.315629e+00	1.903119e-12
4.321131e+00	7.342461e-09
4.326634e+00	5.585674e-06
4.332136e+00	7.955204e-04
4.337638e+00	2.133887e-02
4.343140e+00	1.102771e-01
4.348642e+00	1.185395e-01
4.354144e+00	3.170794e-02
4.359646e+00	2.453122e-03
4.365148e+00	4.884891e-05
4.370650e+00	2.066505e-07
4.376152e+00	1.882607e-10
4.381654e+00	2.333475e-08
4.387156e+00	5.246430e-06
4.392658e+00	2.228728e-04
4.398160e+00	1.910407e-03
4.403662e+00	4.544017e-03
4.409163e+00	4.713226e-03
4.414665e+00	1.528287e-03
4.420167e+00	1.038201e-04
4.425668e+00	1.340653e-06
4.431170e+00	1.184874e-07
4.436672e+00	4.012369e-05
4.442173e+00	2.615997e-03
4.447675e+00	3.193143e-02
4.453176e+00	7.295542e-02
4.458677e+00	3.177575e-02
4.464179e+00	2.360720e-02
4.469680e+00	1.420334e-01
4.475181e+00	1.784281e-01
4.480683e+00	4.192655e-02
4.486184e+00	5.795655e-03
4.491685e+00	7.743928e-02
4.497186e+00	2.829353e-01
4.502687e+00	1.931726e-01
4.508188e+00	2.464065e-02
4.513690e+00	5.874398e-04
4.519191e+00	6.168153e-06
4.524691e+00	1.115122e-05
4.530192e+00	6.535284e-06
4.535693e+00	7.200740e-07
4.541194e+00	1.154651e-06
4.546695e+00	5.567522e-05
4.552196e+00	5.080001e-04
4.557696e+00	8.660733e-04
4.563197e+00	2.873155e-04
4.568698e+00	3.238976e-04
4.574198e+00	1.672044e-03
4.579699e+00	3.374556e-03
4.585200e+00	4.938388e-03
4.590700e+00	6.773080e-03
4.596201e+00	3.240062e-02
4.601701e+00	4.051597e-02
4.607201e+00	9.511202e-03
4.612702e+00	4.171745e-04
4.618202e+00	3.418603e-06
4.623702e+00	5.233927e-09
4.629203e+00	8.146123e-11
4.634703e+00	7.080385e-08
4.640203e+00	1.171296e-05
4.645703e+00	3.620136e-04
4.651203e+00	2.090408e-03
4.656703e+00	2.255202e-03
4.662203e+00	4.545567e-04
4.667703e+00	1.711744e-05
4.673203e+00	1.204308e-07
4.678703e+00	1.590472e-10
4.684203e+00	1.920649e-09
4.689703e+00	9.240023e-07
4.695203e+00	8.305295e-05
4.700702e+00	1.394714e-03
4.706202e+00	4.375860e-03
4.711702e+00	2.565015e-03
4.717201e+00	2.809083e-04
4.722701e+00	5.747610e-06
4.728201e+00	2.197142e-08
4.733700e+00	1.569196e-11
4.739199e+00	4.032822e-33
4.744699e+00	5.806737e-32
4.750198e+00	1.564161e-31
4.755698e+00	7.887940e-32
4.761197e+00	1.169032e-32
4.766696e+00	2.139275e-32
4.772195e+00	1.969477e-32
4.777695e+00	3.408098e-33
4.783194e+00	1.101871e-34
4.788693e+00	6.655935e-37
4.794192e+00	3.250523e-38
4.799691e+00	1.164205e-35
4.805190e+00	3.177941e-11
4.810689e+00	4.446349e-08
4.816188e+00	1.162276e-05
4.821687e+00	5.676275e-04
4.827186e+00	5.179235e-03
4.832684e+00	8.829272e-03
4.838183e+00	2.828302e-03
4.843682e+00	4.411856e-04
4.849181e+00	8.613064e-04
4.854679e+00	5.207313e-04
4.860178e+00	3.013008e-04
4.865676e+00	6.641625e-04
4.871175e+00	3.366414e-04
4.876673e+00	5.242404e-04
4.882172e+00	1.547340e-02
4.887670e+00	9.488151e-02
4.893169e+00	1.368472e-01
4.898667e+00	7.462040e-02
4.904165e+00	2.377849e-02
4.909663e+00	1.575988e-02
4.915162e+00	4.933526e-03
4.920660e+00	3.097025e-04
4.926158e+00	1.422737e-04
4.931656e+00	3.157426e-03
4.937154e+00	1.343923e-02
4.942652e+00	1.068722e-02
4.948150e+00	1.590832e-03
4.953648e+00	4.104345e-04
4.959146e+00	8.346680e-03
4.964644e+00	3.552582e-02
4.970141e+00	2.825105e-02
4.975639e+00	4.197330e-03
4.981137e+00	1.165091e-04
4.986634e+00	6.042195e-07
4.992132e+00	5.854338e-10
4.997630e+00	1.888723e-12
5.003127e+00	7.685105e-09
5.008625e+00	5.842242e-06
5.014122e+00	8.297696e-04
5.019620e+00	2.201829e-02
5.025117e+00	1.091592e-01
5.030614e+00	1.011251e-01
5.036112e+00	1.775223e-02
5.041609e+00	2.200948e-03
5.047106e+00	2.410202e-03
5.052603e+00	8.553992e-04
5.058100e+00	2.582552e-03
5.063597e+00	6.865100e-03
5.069094e+00	3.925236e-03
5.074591e+00	8.272016e-03
5.080088e+00	2.509444e-02
5.085585e+00	1.662259e-02
5.091082e+00	6.884226e-03
5.096579e+00	1.026891e-02
5.102076e+00	2.566702e-02
5.107572e+00	4.072340e-02
5.113069e+00	3.023934e-02
5.118566e+00	5.453682e-03
5.124062e+00	3.098535e-03
5.129559e+00	8.538217e-03
5.135056e+00	2.054793e-02
5.140552e+00	1.853069e-02
5.146049e+00	1.372657e-02
5.151545e+00	7.878983e-03
5.157041e+00	1.136642e-03
5.162538e+00	5.870398e-03
5.168034e+00	4.580164e-02
5.173530e+00	6.710513e-02
5.179026e+00	2.093282e-02
5.184522e+00	1.971916e-02
5.190019e+00	3.098238e-02
5.195515e+00	1.522440e-02
5.201011e+00	2.298800e-03
5.206507e+00	1.450631e-03
5.212003e+00	1.251606e-02
5.217498e+00	2.133537e-02
5.222994e+00	6.809793e-03
5.228490e+00	1.125348e-03
5.233986e+00	6.658881e-03
5.239482e+00	1.270202e-02
5.244977e+00	1.556594e-02
5.250473e+00	2.053096e-02
5.255968e+00	6.741357e-03
5.261464e+00	1.335520e-03
5.266959e+00	6.516543e-04
5.272455e+00	8.257856e-05
5.277950e+00	1.992514e-06
5.283446e+00	7.541991e-06
5.288941e+00	4.285995e-04
5.294436e+00	4.571025e-03
5.299932e+00	9.653885e-03
5.305427e+00	7.467719e-03
5.310922e+00	5.401205e-03
5.316417e+00	1.216449e-03
5.321912e+00	5.323042e-05
5.327407e+00	4.361496e-07
5.332902e+00	3.949616e-09
5.338397e+00	2.494890e-06
5.343892e+00	3.543481e-04
5.349387e+00	9.403186e-03
5.354882e+00	4.666011e-02
5.360376e+00	4.405121e-02
5.365871e+00	1.068692e-02
5.371366e+00	3.288544e-03
5.376860e+00	7.084222e-03
5.382355e+00	1.164492e-02
5.387849e+00	2.867908e-02
5.393344e+00	7.561778e-02
5.398838e+00	4.239209e-02
5.404333e+00	4.640247e-03
5.409827e+00	9.968646e-05
5.415321e+00	1.997858e-06
5.420816e+00	9.210762e-05
5.426310e+00	1.157343e-03
5.431804e+00	2.935029e-03
5.437298e+00	1.750068e-03
5.442792e+00	1.132585e-02
5.448286e+00	7.527600e-02
5.453780e+00	9.458656e-02
5.459274e+00	2.220567e-02
5.464768e+00	9.739723e-04
5.470262e+00	7.981370e-06
5.475756e+00	1.225790e-08
5.481250e+00	4.173694e-08
5.486743e+00	8.945673e-06
5.492237e+00	3.762002e-04
5.497731e+00	3.082167e-03
5.503224e+00	4.876157e-03
5.508718e+00	1.476991e-03
5.514211e+00	1.030025e-04
5.519705e+00	3.529050e-04
5.525198e+00	1.286363e-03
5.530691e+00	9.014118e-04
5.536185e+00	1.106514e-03
5.541678e+00	8.341667e-03
5.547171e+00	1.492414e-02
5.552664e+00	6.603428e-03
5.558158e+00	8.190325e-04
5.563651e+00	4.143134e-04
5.569144e+00	6.690182e-04
5.574637e+00	2.130336e-04
5.580130e+00	1.268077e-05
5.585622e+00	4.342086e-07
5.591115e+00	3.743790e-06
5.596608e+00	1.125061e-05
5.602101e+00	2.086642e-05
5.607594e+00	2.970038e-04
5.613086e+00	3.051619e-03
5.618579e+00	6.056331e-03
5.624071e+00	2.246660e-03
5.629564e+00	1.557098e-04
5.635056e+00	2.016242e-06
5.640549e+00	4.877729e-09
5.646041e+00	2.204656e-12
5.651534e+00	9.450302e-15
5.657026e+00	3.845274e-11
5.662518e+00	2.923190e-08
5.668010e+00	4.151787e-06
5.673502e+00	1.101703e-04
5.678995e+00	5.464438e-04
5.684487e+00	5.221634e-04
5.689979e+00	3.421893e-04
5.695471e+00	1.519988e-03
5.700963e+00	2.902201e-03
5.706454e+00	1.211936e-03
5.711946e+00	9.754338e-05
5.717438e+00	1.827036e-05
5.722930e+00	2.080160e-04
5.728421e+00	4.811516e-04
5.733913e+00	2.318025e-04
5.739405e+00	1.265924e-03
5.744896e+00	1.273645e-02
5.750388e+00	2.591120e-02
5.755879e+00	1.071473e-02
5.761371e+00	9.564881e-04
5.766862e+00	9.808229e-04
5.772353e+00	3.527321e-03
5.777844e+00	2.412476e-03
5.783336e+00	7.529266e-04
5.788827e+00	8.725859e-03
5.794318e+00	3.186063e-02
5.799809e+00	2.175266e-02
5.805300e+00	2.774719e-03
5.810791e+00	6.612622e-05
5.816282e+00	2.986219e-07
5.821773e+00	2.137013e-06
5.827264e+00	2.069174e-04
5.832754e+00	3.846841e-03
5.838245e+00	1.413744e-02
5.843736e+00	1.123668e-02
5.849226e+00	2.325612e-03
5.854717e+00	1.397334e-04
5.860207e+00	2.096863e-06
5.865698e+00	6.572173e-09
5.871188e+00	6.531722e-10
5.876679e+00	5.151941e-07
5.882169e+00	7.698206e-05
5.887659e+00	2.199631e-03
5.893150e+00	1.302160e-02
5.898640e+00	2.144139e-02
5.904130e+00	1.532933e-02
5.909620e+00	1.120575e-02
5.915110e+00	1.690897e-02
5.920600e+00	3.267535e-02
5.926090e+00	3.068066e-02
5.931580e+00	2.773562e-02
5.937070e+00	8.456140e-03
5.942560e+00	6.259705e-04
5.948049e+00	6.071309e-05
5.953539e+00	1.221332e-05
5.959029e+00	1.302974e-04
5.964518e+00	4.090738e-04
5.970008e+00	3.083489e-04
5.975497e+00	1.873541e-03
5.980987e+00	9.503257e-03
5.986476e+00	9.882419e-03
5.991966e+00	2.343591e-03
5.997455e+00	1.451422e-04
6.002944e+00	2.298237e-06
6.008433e+00	9.939922e-07
6.013922e+00	8.611597e-05
6.019412e+00	1.410036e-03
6.024901e+00	4.335637e-03
6.030390e+00	2.936025e-03
6.035879e+00	4.366606e-03
6.041368e+00	7.277591e-03
6.046856e+00	9.953948e-03
6.052345e+00	4.495213e-02
6.057834e+00	5.887844e-02
6.063323e+00	2.275556e-02
6.068811e+00	4.726364e-02
6.074300e+00	8.719826e-02
6.079788e+00	5.714660e-02
6.085277e+00	1.399724e-02
6.090765e+00	4.017198e-03
6.096254e+00	4.642934e-03
6.101742e+00	3.798637e-03
6.107230e+00	1.149069e-02
6.112719e+00	1.299606e-02
6.118207e+00	3.981874e-03
6.123695e+00	4.341158e-03
6.129183e+00	2.475640e-02
6.134671e+00	4.195053e-02
6.140159e+00	2.521062e-02
6.145647e+00	5.126376e-03
6.151135e+00	3.431436e-04
6.156623e+00	3.203171e-04
6.162111e+00	2.587198e-04
6.167598e+00	2.702325e-04
6.173086e+00	1.618648e-03
6.178574e+00	3.647885e-03
6.184061e+00	1.047632e-02
6.189549e+00	1.656638e-02
6.195036e+00	2.431657e-02
6.200524e+00	1.524925e-02
6.206011e+00	2.132285e-03
6.211499e+00	8.880561e-04
6.216986e+00	6.722672e-04
6.222473e+00	3.699383e-04
6.227960e+00	5.747691e-03
6.233447e+00	2.541116e-02
6.238935e+00	2.545542e-02
6.244422e+00	6.105245e-03
6.249909e+00	3.396191e-04
6.255395e+00	2.264982e-04
6.260882e+00	5.070066e-03
6.266369e+00	2.158018e-02
6.271856e+00	1.716112e-02
6.277343e+00	2.550019e-03
6.282829e+00	1.380304e-04
6.288316e+00	2.429720e-03
6.293802e+00	1.649901e-02
6.299289e+00	2.131643e-02
6.304775e+00	5.403279e-03
6.310262e+00	2.878895e-04
6.315748e+00	4.925874e-06
6.321234e+00	3.781473e-05
6.326721e+00	3.556242e-04
6.332207e+00	3.154097e-03
6.337693e+00	9.408213e-03
6.343179e+00	5.499083e-03
6.348665e+00	6.021472e-04
6.354151e+00	1.329085e-05
6.359637e+00	9.357419e-05
6.365123e+00	1.826357e-03
6.370609e+00	6.673940e-03
6.376095e+00	4.556596e-03
6.381580e+00	5.812287e-04
6.387066e+00	1.385166e-05
6.392552e+00	6.167437e-08
6.398037e+00	5.153989e-11
6.403523e+00	3.304425e-10
6.409008e+00	8.910861e-08
6.414494e+00	5.692602e-06
6.419979e+00	1.757532e-04
6.425464e+00	2.460014e-03
6.430949e+00	8.374602e-03
6.436435e+00	1.233035e-02
6.441920e+00	2.067397e-02
6.447405e+00	1.012868e-02
6.452890e+00	9.520392e-04
6.458375e+00	1.796205e-05
6.463860e+00	3.976826e-07
6.469345e+00	1.754878e-08
6.474829e+00	1.671772e-10
6.480314e+00	2.981178e-13
6.485799e+00	5.398582e-11
6.491284e+00	6.859847e-08
6.496768e+00	1.749624e-05
6.502253e+00	9.535722e-04
6.507737e+00	1.177639e-02
6.513222e+00	3.333130e-02
6.518706e+00	2.612932e-02
6.524190e+00	2.254803e-02
6.529675e+00	1.321218e-02
6.535159e+00	3.881310e-03
6.540643e+00	9.184412e-04
6.546127e+00	5.772338e-05
6.551611e+00	6.994241e-07
6.557095e+00	3.376229e-09
6.562579e+00	5.201130e-07
6.568063e+00	4.469952e-05
6.573547e+00	1.686475e-03
6.579031e+00	1.870228e-02
6.584515e+00	4.255998e-02
6.589998e+00	1.834805e-02
6.595482e+00	1.480699e-03
6.600965e+00	2.292840e-05
6.606449e+00	3.964912e-05
6.611932e+00	4.900156e-04
6.617416e+00	1.133246e-03
6.622899e+00	4.896988e-04
6.628382e+00	4.630831e-05
6.633866e+00	1.805328e-04
6.639349e+00	8.920621e-04
6.644832e+00	8.268234e-04
6.650315e+00	2.118664e-04
6.655798e+00	1.583455e-03
6.661281e+00	6.977093e-03
6.666764e+00	7.217699e-03
6.672247e+00	1.035638e-02
6.677730e+00	3.017074e-02
6.683212e+00	2.042906e-02
6.688695e+00	2.633580e-03
6.694178e+00	2.991755e-04
6.699660e+00	7.169806e-04
6.705143e+00	2.330952e-03
6.710625e+00	2.447981e-03
6.716108e+00	1.019920e-03
6.721590e+00	2.404727e-03
6.727072e+00	3.040077e-03
6.732555e+00	1.407279e-03
6.738037e+00	7.901284e-04
6.743519e+00	5.287645e-03
6.749001e+00	3.178862e-02
6.754483e+00	4.308138e-02
6.759965e+00	3.332239e-02
6.765447e+00	3.627851e-02
6.770929e+00	1.825837e-02
6.776411e+00	4.333208e-03
6.781892e+00	4.497869e-04
6.787374e+00	2.164574e-03
6.792856e+00	5.195980e-03
6.798337e+00	2.495919e-03
6.803819e+00	2.073128e-03
6.809300e+00	1.235857e-02
6.814782e+00	1.555290e-02
6.820263e+00	5.038896e-03
6.825744e+00	1.318443e-02
6.831226e+00	2.524038e-02
6.836707e+00	1.060855e-02
6.842188e+00	2.977539e-03
6.847669e+00	2.075464e-02
6.853150e+00	4.096765e-02
6.858631e+00	1.526447e-02
6.864112e+00	1.398567e-03
6.869593e+00	3.641997e-04
6.875074e+00	2.359849e-03
6.880554e+00	1.351230e-02
6.886035e+00	2.119315e-02
6.891516e+00	2.604767e-02
6.896996e+00	3.075326e-02
6.902477e+00	1.328984e-02
6.907957e+00	4.280775e-03
6.913437e+00	5.202607e-03
6.918918e+00	7.013965e-03
6.924398e+00	3.330400e-03
6.929878e+00	9.947636e-03
6.935358e+00	2.236782e-02
6.940839e+00	1.942937e-02
6.946319e+00	4.500989e-03
6.951799e+00	6.361842e-03
6.957279e+00	3.455670e-02
6.962758e+00	4.683831e-02
6.968238e+00	1.687671e-02
6.973718e+00	2.067371e-03
6.979198e+00	7.989917e-03
6.984677e+00	2.120771e-02
6.990157e+00	1.059744e-02
6.995636e+00	9.948873e-04
7.001116e+00	9.602937e-05
7.006595e+00	3.910940e-04
7.012075e+00	4.009229e-04
7.017554e+00	1.113110e-03
7.023033e+00	8.935652e-03
7.028512e+00	2.524487e-02
7.033992e+00	3.130287e-02
7.039471e+00	1.130600e-02
7.044950e+00	9.849745e-03
7.050429e+00	2.416525e-02
7.055907e+00	1.230028e-02
7.061386e+00	5.447480e-03
7.066865e+00	1.759940e-02
7.072344e+00	2.344924e-02
7.077822e+00	1.826566e-02
7.083301e+00	2.413429e-02
7.088780e+00	1.534514e-02
7.094258e+00	2.427296e-03
7.099736e+00	3.768292e-04
7.105215e+00	2.576432e-03
7.110693e+00	4.484106e-03
7.116171e+00	1.956661e-03
7.121649e+00	3.300543e-04
7.127128e+00	1.864271e-05
7.132606e+00	2.392413e-07
7.138084e+00	1.822474e-06
7.143562e+00	9.980066e-05
7.149040e+00	1.034858e-03
7.154517e+00	2.024315e-03
7.159995e+00	9.180232e-04
7.165473e+00	3.462168e-03
7.170950e+00	1.246503e-02
7.176428e+00	8.511344e-03
7.181906e+00	1.085938e-03
7.187383e+00	2.734654e-05
7.192861e+00	5.660449e-05
7.198338e+00	4.923798e-04
7.203815e+00	1.061060e-03
7.209292e+00	6.061048e-04
7.214770e+00	1.367572e-04
7.220247e+00	7.804155e-05
7.225724e+00	2.834227e-05
7.231201e+00	4.503914e-04
7.236678e+00	6.014981e-03
7.242155e+00	2.518789e-02
7.247631e+00	3.766931e-02
7.253108e+00	1.709216e-02
7.258585e+00	2.628854e-02
7.264061e+00	4.949068e-02
7.269538e+00	1.832162e-02
7.275015e+00	1.269358e-03
7.280491e+00	1.768801e-05
7.285967e+00	6.191796e-05
7.291444e+00	5.830018e-04
7.296920e+00	1.085664e-03
7.302396e+00	4.591591e-04
7.307872e+00	4.156387e-04
7.313348e+00	1.614422e-03
7.318825e+00	3.399264e-03
7.324300e+00	7.767840e-03
7.329776e+00	5.894076e-03
7.335252e+00	8.734123e-04
7.340728e+00	2.731791e-05
7.346204e+00	2.214312e-04
7.351679e+00	4.388892e-03
7.357155e+00	1.820446e-02
7.362631e+00	1.454018e-02
7.368106e+00	2.241570e-03
7.373582e+00	9.639424e-05
7.379057e+00	1.479123e-04
7.384532e+00	2.751004e-04
7.390007e+00	2.158982e-03
7.395483e+00	1.461891e-02
7.400958e+00	2.873816e-02
7.406433e+00	1.272705e-02
7.411908e+00	2.442794e-03
7.417383e+00	4.836844e-03
7.422858e+00	3.627669e-03
7.428332e+00	5.342740e-03
7.433807e+00	1.327798e-02
7.439282e+00	7.098381e-03
7.444756e+00	6.738106e-03
7.450231e+00	1.647131e-02
7.455706e+00	8.331302e-03
7.461180e+00	1.732162e-03
7.466654e+00	3.846378e-03
7.472129e+00	3.931729e-03
7.477603e+00	1.531371e-03
7.483077e+00	7.411356e-04
7.488551e+00	2.380502e-03
7.494025e+00	1.968522e-03
7.499499e+00	8.295533e-04
7.504973e+00	9.553480e-04
7.510447e+00	3.914123e-03
7.515921e+00	1.025498e-02
7.521395e+00	8.906965e-03
7.526869e+00	1.469811e-02
7.532342e+00	1.174132e-02
7.537816e+00	1.261161e-02
7.543289e+00	1.908930e-02
7.548763e+00	2.420004e-02
7.554236e+00	1.323080e-02
7.559709e+00	9.331690e-03
7.565183e+00	2.939715e-02
7.570656e+00	2.154247e-02
7.576129e+00	3.562535e-03
7.581602e+00	1.566433e-03
7.587075e+00	2.101974e-03
7.592548e+00	5.744086e-04
7.598021e+00	3.112720e-05
7.603494e+00	1.748366e-04
7.608967e+00	3.303265e-03
7.614439e+00	1.214267e-02
7.619912e+00	9.350731e-03
7.625384e+00	1.060020e-02
7.630857e+00	2.708222e-02
7.636329e+00	2.489645e-02
7.641802e+00	1.769942e-02
7.647274e+00	1.004388e-02
7.652746e+00	6.512446e-03
7.658219e+00	1.336156e-03
7.663691e+00	6.066183e-05
7.669163e+00	6.585548e-07
7.674635e+00	7.952087e-06
7.680107e+00	1.567520e-04
7.685579e+00	7.232832e-04
7.691050e+00	3.921530e-03
7.696522e+00	1.508993e-02
7.701994e+00	1.196175e-02
7.707465e+00	1.779960e-03
7.712937e+00	1.466406e-04
7.718409e+00	8.689214e-04
7.723880e+00	3.735892e-03
7.729351e+00	5.524052e-03
7.734823e+00	1.727669e-03
7.740294e+00	1.180982e-04
7.745765e+00	6.471341e-04
7.751236e+00	5.728614e-03
7.756707e+00	9.918958e-03
7.762178e+00	3.696838e-03
7.767649e+00	8.055561e-04
7.773120e+00	4.947598e-04
7.778591e+00	2.226878e-04
7.784061e+00	1.348150e-03
7.789532e+00	9.642629e-03
7.795003e+00	2.753668e-02
7.800473e+00	3.661715e-02
7.805944e+00	1.684698e-02
7.811414e+00	2.109285e-03
7.816884e+00	3.142666e-03
7.822355e+00	1.288523e-02
7.827825e+00	1.174699e-02
7.833295e+00	6.562898e-03
7.838765e+00	4.975909e-03
7.844235e+00	8.379775e-03
7.849705e+00	1.457952e-02
7.855175e+00	5.958762e-03
7.860645e+00	3.708013e-03
7.866115e+00	7.255376e-03
7.871584e+00	9.348906e-03
7.877054e+00	6.414144e-03
7.882523e+00	7.939538e-03
7.887993e+00	2.518038e-02
7.893462e+00	1.801249e-02
7.898932e+00	4.569364e-03
7.904401e+00	1.251040e-03
7.909870e+00	1.129474e-04
7.915339e+00	1.980194e-06
7.915837e+00	1.261819e-06