File: cif_pxrd_calculator/txt/itwotheta/li0.5tio2_li2fev3o8_180011.txt
# 2theta [deg]	I_scaled [a.u.]	Wavelength = 0.20721 Å
0.000000e+00	0.000000e+00
1.042325e-02	0.000000e+00
2.084649e-02	0.000000e+00
3.126974e-02	0.000000e+00
4.169299e-02	0.000000e+00
5.211623e-02	0.000000e+00
6.253948e-02	0.000000e+00
7.296273e-02	0.000000e+00
8.338598e-02	0.000000e+00
9.380922e-02	0.000000e+00
1.042325e-01	0.000000e+00
1.146557e-01	0.000000e+00
1.250790e-01	0.000000e+00
1.355022e-01	0.000000e+00
1.459255e-01	0.000000e+00
1.563487e-01	0.000000e+00
1.667720e-01	0.000000e+00
1.771952e-01	0.000000e+00
1.876184e-01	0.000000e+00
1.980417e-01	0.000000e+00
2.084649e-01	0.000000e+00
2.188882e-01	0.000000e+00
2.293114e-01	0.000000e+00
2.397347e-01	0.000000e+00
2.501579e-01	0.000000e+00
2.605812e-01	0.000000e+00
2.710044e-01	0.000000e+00
2.814277e-01	0.000000e+00
2.918509e-01	0.000000e+00
3.022742e-01	0.000000e+00
3.126974e-01	0.000000e+00
3.231207e-01	0.000000e+00
3.335439e-01	0.000000e+00
3.439672e-01	0.000000e+00
3.543904e-01	0.000000e+00
3.648136e-01	0.000000e+00
3.752369e-01	0.000000e+00
3.856601e-01	0.000000e+00
3.960834e-01	0.000000e+00
4.065066e-01	0.000000e+00
4.169299e-01	0.000000e+00
4.273531e-01	0.000000e+00
4.377764e-01	0.000000e+00
4.481996e-01	0.000000e+00
4.586229e-01	0.000000e+00
4.690461e-01	0.000000e+00
4.794694e-01	0.000000e+00
4.898926e-01	0.000000e+00
5.003159e-01	0.000000e+00
5.107391e-01	0.000000e+00
5.211623e-01	0.000000e+00
5.315856e-01	0.000000e+00
5.420088e-01	0.000000e+00
5.524321e-01	0.000000e+00
5.628553e-01	0.000000e+00
5.732786e-01	0.000000e+00
5.837018e-01	0.000000e+00
5.941251e-01	0.000000e+00
6.045483e-01	0.000000e+00
6.149716e-01	0.000000e+00
6.253948e-01	0.000000e+00
6.358181e-01	0.000000e+00
6.462413e-01	0.000000e+00
6.566646e-01	0.000000e+00
6.670878e-01	0.000000e+00
6.775111e-01	0.000000e+00
6.879343e-01	0.000000e+00
6.983575e-01	0.000000e+00
7.087808e-01	0.000000e+00
7.192040e-01	0.000000e+00
7.296273e-01	0.000000e+00
7.400505e-01	0.000000e+00
7.504738e-01	0.000000e+00
7.608970e-01	0.000000e+00
7.713203e-01	0.000000e+00
7.817435e-01	0.000000e+00
7.921668e-01	0.000000e+00
8.025900e-01	0.000000e+00
8.130133e-01	0.000000e+00
8.234365e-01	0.000000e+00
8.338598e-01	0.000000e+00
8.442830e-01	0.000000e+00
8.547063e-01	0.000000e+00
8.651295e-01	0.000000e+00
8.755527e-01	0.000000e+00
8.859760e-01	0.000000e+00
8.963992e-01	0.000000e+00
9.068225e-01	0.000000e+00
9.172457e-01	0.000000e+00
9.276690e-01	0.000000e+00
9.380922e-01	0.000000e+00
9.485155e-01	1.952115e-40
9.589387e-01	3.705332e-37
9.693620e-01	1.314005e-34
9.797852e-01	8.705927e-33
9.902085e-01	1.077659e-31
1.000632e+00	2.492272e-31
1.011055e+00	1.076857e-31
1.021478e+00	8.692979e-33
1.031901e+00	1.311075e-34
1.042325e+00	3.694319e-37
1.052748e+00	1.944865e-40
1.063171e+00	0.000000e+00
1.073594e+00	0.000000e+00
1.084018e+00	0.000000e+00
1.094441e+00	0.000000e+00
1.104864e+00	0.000000e+00
1.115287e+00	0.000000e+00
1.125711e+00	0.000000e+00
1.136134e+00	0.000000e+00
1.146557e+00	0.000000e+00
1.156980e+00	0.000000e+00
1.167404e+00	0.000000e+00
1.177827e+00	0.000000e+00
1.188250e+00	0.000000e+00
1.198673e+00	0.000000e+00
1.209097e+00	0.000000e+00
1.219520e+00	0.000000e+00
1.229943e+00	0.000000e+00
1.240366e+00	0.000000e+00
1.250790e+00	0.000000e+00
1.261213e+00	0.000000e+00
1.271636e+00	0.000000e+00
1.282059e+00	0.000000e+00
1.292483e+00	0.000000e+00
1.302906e+00	0.000000e+00
1.313329e+00	0.000000e+00
1.323752e+00	0.000000e+00
1.334176e+00	0.000000e+00
1.344599e+00	0.000000e+00
1.355022e+00	0.000000e+00
1.365445e+00	0.000000e+00
1.375869e+00	0.000000e+00
1.386292e+00	0.000000e+00
1.396715e+00	0.000000e+00
1.407138e+00	0.000000e+00
1.417562e+00	0.000000e+00
1.427985e+00	0.000000e+00
1.438408e+00	0.000000e+00
1.448831e+00	0.000000e+00
1.459255e+00	0.000000e+00
1.469678e+00	0.000000e+00
1.480101e+00	0.000000e+00
1.490524e+00	0.000000e+00
1.500948e+00	0.000000e+00
1.511371e+00	0.000000e+00
1.521794e+00	0.000000e+00
1.532217e+00	0.000000e+00
1.542641e+00	0.000000e+00
1.553064e+00	0.000000e+00
1.563487e+00	0.000000e+00
1.573910e+00	0.000000e+00
1.584334e+00	0.000000e+00
1.594757e+00	0.000000e+00
1.605180e+00	0.000000e+00
1.615603e+00	0.000000e+00
1.626027e+00	0.000000e+00
1.636450e+00	0.000000e+00
1.646873e+00	0.000000e+00
1.657296e+00	0.000000e+00
1.667720e+00	0.000000e+00
1.678143e+00	0.000000e+00
1.688566e+00	0.000000e+00
1.698989e+00	0.000000e+00
1.709413e+00	0.000000e+00
1.719836e+00	0.000000e+00
1.730259e+00	0.000000e+00
1.740682e+00	0.000000e+00
1.751105e+00	0.000000e+00
1.761529e+00	0.000000e+00
1.771952e+00	0.000000e+00
1.782375e+00	0.000000e+00
1.792798e+00	0.000000e+00
1.803222e+00	0.000000e+00
1.813645e+00	0.000000e+00
1.824068e+00	0.000000e+00
1.834491e+00	7.274469e-41
1.844915e+00	8.738302e-38
1.855338e+00	1.961105e-35
1.865761e+00	8.222862e-34
1.876184e+00	7.231787e-11
1.886608e+00	2.169019e-07
1.897031e+00	1.215428e-04
1.907454e+00	1.272457e-02
1.917877e+00	2.488887e-01
1.928301e+00	9.095267e-01
1.938724e+00	6.209746e-01
1.949147e+00	7.921008e-02
1.959570e+00	1.887896e-03
1.969994e+00	8.531171e-05
1.980417e+00	5.934918e-03
1.990840e+00	8.556819e-02
2.001263e+00	2.304935e-01
2.011687e+00	1.159987e-01
2.022110e+00	1.090676e-02
2.032533e+00	1.915960e-04
2.042956e+00	6.288187e-07
2.053380e+00	3.855782e-10
2.063803e+00	0.000000e+00
2.074226e+00	0.000000e+00
2.084649e+00	0.000000e+00
2.095073e+00	0.000000e+00
2.105496e+00	0.000000e+00
2.115919e+00	0.000000e+00
2.126342e+00	0.000000e+00
2.136766e+00	0.000000e+00
2.147189e+00	0.000000e+00
2.157612e+00	0.000000e+00
2.168035e+00	0.000000e+00
2.178459e+00	0.000000e+00
2.188882e+00	0.000000e+00
2.199305e+00	0.000000e+00
2.209728e+00	0.000000e+00
2.220152e+00	0.000000e+00
2.230575e+00	0.000000e+00
2.240998e+00	0.000000e+00
2.251421e+00	0.000000e+00
2.261845e+00	7.414648e-13
2.272268e+00	3.016978e-09
2.282691e+00	2.293517e-06
2.293114e+00	3.257466e-04
2.303538e+00	8.643825e-03
2.313961e+00	4.285290e-02
2.324384e+00	3.969197e-02
2.334807e+00	6.868679e-03
2.345231e+00	2.220710e-04
2.355654e+00	1.341401e-06
2.366077e+00	1.513819e-09
2.376500e+00	1.028411e-41
2.386924e+00	3.084497e-38
2.397347e+00	1.728423e-35
2.407770e+00	1.809523e-33
2.418193e+00	3.539372e-32
2.428617e+00	1.293411e-31
2.439040e+00	8.830696e-32
2.449463e+00	1.126423e-32
2.459886e+00	2.684456e-34
2.470310e+00	1.195251e-36
2.480733e+00	9.942835e-40
2.491156e+00	0.000000e+00
2.501579e+00	0.000000e+00
2.512003e+00	0.000000e+00
2.522426e+00	0.000000e+00
2.532849e+00	0.000000e+00
2.543272e+00	0.000000e+00
2.553696e+00	0.000000e+00
2.564119e+00	0.000000e+00
2.574542e+00	0.000000e+00
2.584965e+00	0.000000e+00
2.595389e+00	0.000000e+00
2.605812e+00	0.000000e+00
2.616235e+00	0.000000e+00
2.626658e+00	0.000000e+00
2.637081e+00	0.000000e+00
2.647505e+00	0.000000e+00
2.657928e+00	0.000000e+00
2.668351e+00	0.000000e+00
2.678774e+00	0.000000e+00
2.689198e+00	0.000000e+00
2.699621e+00	0.000000e+00
2.710044e+00	0.000000e+00
2.720467e+00	0.000000e+00
2.730891e+00	0.000000e+00
2.741314e+00	0.000000e+00
2.751737e+00	0.000000e+00
2.762160e+00	0.000000e+00
2.772584e+00	0.000000e+00
2.783007e+00	0.000000e+00
2.793430e+00	0.000000e+00
2.803853e+00	0.000000e+00
2.814277e+00	0.000000e+00
2.824700e+00	0.000000e+00
2.835123e+00	0.000000e+00
2.845546e+00	0.000000e+00
2.855970e+00	0.000000e+00
2.866393e+00	0.000000e+00
2.876816e+00	0.000000e+00
2.887239e+00	0.000000e+00
2.897663e+00	0.000000e+00
2.908086e+00	0.000000e+00
2.918509e+00	0.000000e+00
2.928932e+00	0.000000e+00
2.939356e+00	0.000000e+00
2.949779e+00	7.725663e-41
2.960202e+00	1.989397e-37
2.970625e+00	9.570955e-35
2.981049e+00	8.602749e-33
2.991472e+00	1.444666e-31
3.001895e+00	4.532590e-31
3.012318e+00	2.657636e-31
3.022742e+00	3.036421e-32
3.033165e+00	4.571498e-33
3.043588e+00	2.332992e-33
3.054011e+00	2.552506e-34
3.064435e+00	5.223469e-36
3.074858e+00	6.808526e-37
3.085281e+00	9.386549e-35
3.095704e+00	2.490760e-33
3.106128e+00	1.234827e-32
3.116551e+00	1.143743e-32
3.126974e+00	2.291859e-11
3.137397e+00	3.734888e-08
3.147821e+00	1.137144e-05
3.158244e+00	6.468469e-04
3.168667e+00	6.874414e-03
3.179090e+00	1.364954e-02
3.189514e+00	5.063473e-03
3.199937e+00	3.509354e-04
3.210360e+00	4.544163e-06
3.220783e+00	4.080405e-08
3.231207e+00	2.639577e-05
3.241630e+00	4.366608e-03
3.252053e+00	1.349591e-01
3.262476e+00	7.793069e-01
3.272900e+00	8.407423e-01
3.283323e+00	1.694593e-01
3.293746e+00	6.381403e-03
3.304169e+00	4.489676e-05
3.314593e+00	5.901495e-08
3.325016e+00	1.449296e-11
3.335439e+00	0.000000e+00
3.345862e+00	0.000000e+00
3.356286e+00	0.000000e+00
3.366709e+00	0.000000e+00
3.377132e+00	0.000000e+00
3.387555e+00	0.000000e+00
3.397979e+00	0.000000e+00
3.408402e+00	0.000000e+00
3.418825e+00	0.000000e+00
3.429248e+00	0.000000e+00
3.439672e+00	0.000000e+00
3.450095e+00	0.000000e+00
3.460518e+00	0.000000e+00
3.470941e+00	0.000000e+00
3.481364e+00	0.000000e+00
3.491788e+00	0.000000e+00
3.502211e+00	0.000000e+00
3.512634e+00	0.000000e+00
3.523057e+00	0.000000e+00
3.533481e+00	0.000000e+00
3.543904e+00	0.000000e+00
3.554327e+00	0.000000e+00
3.564750e+00	0.000000e+00
3.575174e+00	0.000000e+00
3.585597e+00	5.307046e-13
3.596020e+00	8.648536e-10
3.606443e+00	2.633179e-07
3.616867e+00	1.497844e-05
3.627290e+00	1.591844e-04
3.637713e+00	3.160698e-04
3.648136e+00	1.172502e-04
3.658560e+00	8.126286e-06
3.668983e+00	1.052250e-07
3.679406e+00	2.545622e-10
3.689829e+00	1.150580e-13
3.700253e+00	1.317901e-31
3.710676e+00	4.872517e-32
3.721099e+00	5.814811e-10
3.731522e+00	5.996935e-07
3.741946e+00	1.155503e-04
3.752369e+00	4.159693e-03
3.762792e+00	2.797690e-02
3.773215e+00	3.515490e-02
3.783639e+00	8.253163e-03
3.794062e+00	3.619955e-04
3.804485e+00	2.966429e-06
3.814908e+00	1.797993e-08
3.825332e+00	1.189892e-05
3.835755e+00	1.968534e-03
3.846178e+00	6.089735e-02
3.856601e+00	3.566505e-01
3.867025e+00	4.688218e-01
3.877448e+00	3.582157e-01
3.887871e+00	1.680755e-01
3.898294e+00	1.811203e-02
3.908718e+00	3.708504e-04
3.919141e+00	1.716207e-04
3.929564e+00	8.312430e-03
3.939987e+00	7.584556e-02
3.950411e+00	1.292946e-01
3.960834e+00	4.117934e-02
3.971257e+00	2.473068e-03
3.981680e+00	2.407073e-03
3.992104e+00	4.654885e-02
4.002527e+00	1.701056e-01
4.012950e+00	1.161388e-01
4.023373e+00	1.481439e-02
4.033797e+00	3.530518e-04
4.044220e+00	1.571960e-06
4.054643e+00	1.307653e-09
4.065066e+00	1.485573e-33
4.075490e+00	2.400395e-34
4.085913e+00	1.321627e-32
4.096336e+00	1.404568e-31
4.106759e+00	2.788849e-31
4.117183e+00	1.034560e-31
4.127606e+00	7.170248e-33
4.138029e+00	9.284553e-35
4.148452e+00	2.246136e-37
4.158876e+00	1.015217e-40
4.169299e+00	0.000000e+00
4.179722e+00	0.000000e+00
4.190145e+00	0.000000e+00
4.200569e+00	0.000000e+00
4.210992e+00	0.000000e+00
4.221415e+00	2.332749e-42
4.231838e+00	6.996579e-39
4.242262e+00	3.920591e-36
4.252685e+00	4.104549e-34
4.263108e+00	8.028374e-33
4.273531e+00	4.514254e-10
4.283955e+00	7.356576e-07
4.294378e+00	2.239824e-04
4.304801e+00	1.274109e-02
4.315224e+00	1.354782e-01
4.325648e+00	2.737240e-01
4.336071e+00	1.600210e-01
4.346494e+00	1.463347e-01
4.356917e+00	6.033089e-02
4.367340e+00	4.863231e-03
4.377764e+00	7.334406e-05
4.388187e+00	2.066671e-07
4.398610e+00	1.087994e-10
4.409033e+00	5.358015e-37
4.419457e+00	1.202480e-34
4.429880e+00	5.041966e-33
4.440303e+00	3.949754e-32
4.450726e+00	5.780807e-32
4.461150e+00	1.580720e-32
4.471573e+00	8.075504e-34
4.481996e+00	7.707836e-36
4.492419e+00	1.374496e-38
4.502843e+00	4.579337e-42
4.513266e+00	0.000000e+00
4.523689e+00	0.000000e+00
4.534112e+00	0.000000e+00
4.544536e+00	0.000000e+00
4.554959e+00	0.000000e+00
4.565382e+00	0.000000e+00
4.575805e+00	0.000000e+00
4.586229e+00	5.349499e-11
4.596652e+00	1.182679e-07
4.607075e+00	4.885046e-05
4.617498e+00	3.769803e-03
4.627922e+00	5.435216e-02
4.638345e+00	1.464074e-01
4.648768e+00	7.368135e-02
4.659191e+00	6.927877e-03
4.669615e+00	1.217001e-04
4.680038e+00	3.994201e-07
4.690461e+00	2.449159e-10
4.700884e+00	0.000000e+00
4.711308e+00	0.000000e+00
4.721731e+00	0.000000e+00
4.732154e+00	3.531675e-41
4.742577e+00	7.807904e-38
4.753001e+00	3.225049e-35
4.763424e+00	2.488779e-33
4.773847e+00	1.237819e-09
4.784270e+00	1.096021e-06
4.794694e+00	1.813130e-04
4.805117e+00	5.603857e-03
4.815540e+00	3.235887e-02
4.825963e+00	3.490986e-02
4.836387e+00	7.044192e-03
4.846810e+00	5.918838e-04
4.857233e+00	2.562808e-03
4.867656e+00	3.748165e-03
4.878080e+00	1.024908e-03
4.888503e+00	5.235999e-05
4.898926e+00	4.999675e-07
4.909349e+00	3.373410e-07
4.919773e+00	1.024373e-04
4.930196e+00	5.826988e-03
4.940619e+00	6.192675e-02
4.951042e+00	1.229591e-01
4.961466e+00	4.561326e-02
4.971889e+00	3.161330e-03
4.982312e+00	4.093517e-05
4.992735e+00	9.903109e-08
5.003159e+00	4.476047e-11
5.013582e+00	4.859333e-32
5.024005e+00	8.408782e-33
5.034428e+00	2.728203e-34
5.044852e+00	1.330059e-11
5.055275e+00	2.940522e-08
5.065698e+00	1.214580e-05
5.076121e+00	9.372949e-04
5.086545e+00	1.351370e-02
5.096968e+00	3.640162e-02
5.107391e+00	1.831958e-02
5.117814e+00	1.731776e-03
5.128238e+00	1.002024e-03
5.138661e+00	1.900754e-02
5.149084e+00	6.945985e-02
5.159507e+00	4.742335e-02
5.169931e+00	6.049213e-03
5.180354e+00	1.441629e-04
5.190777e+00	6.418839e-07
5.201200e+00	5.339586e-10
5.211623e+00	0.000000e+00
5.222047e+00	0.000000e+00
5.232470e+00	2.391377e-13
5.242893e+00	9.730376e-10
5.253316e+00	7.397064e-07
5.263740e+00	1.050600e-04
5.274163e+00	2.787812e-03
5.284586e+00	1.382094e-02
5.295009e+00	1.280148e-02
5.305433e+00	2.215290e-03
5.315856e+00	7.162248e-05
5.326279e+00	4.326296e-07
5.336702e+00	4.882376e-10
5.347126e+00	1.423124e-36
5.357549e+00	1.378878e-39
5.367972e+00	0.000000e+00
5.378395e+00	0.000000e+00
5.388819e+00	0.000000e+00
5.399242e+00	0.000000e+00
5.409665e+00	0.000000e+00
5.420088e+00	0.000000e+00
5.430512e+00	0.000000e+00
5.440935e+00	0.000000e+00
5.451358e+00	0.000000e+00
5.461781e+00	0.000000e+00
5.472205e+00	7.675363e-12
5.482628e+00	1.250802e-08
5.493051e+00	3.808259e-06
5.503474e+00	2.166270e-04
5.513898e+00	2.302219e-03
5.524321e+00	4.571187e-03
5.534744e+00	1.695741e-03
5.545167e+00	1.175271e-04
5.555591e+00	1.521826e-06
5.566014e+00	3.681628e-09
5.576437e+00	1.664037e-12
5.586860e+00	3.548654e-32
5.597284e+00	1.334811e-32
5.607707e+00	1.063570e-33
5.618130e+00	1.747445e-35
5.628553e+00	2.402601e-34
5.638977e+00	7.424344e-33
5.649400e+00	4.287107e-32
5.659823e+00	2.835879e-10
5.670246e+00	3.407183e-07
5.680670e+00	7.661754e-05
5.691093e+00	3.285372e-03
5.701516e+00	3.228208e-02
5.711939e+00	1.571628e-01
5.722363e+00	3.878297e-01
5.732786e+00	2.219580e-01
5.743209e+00	2.425646e-02
5.753632e+00	4.970534e-04
5.764056e+00	2.991087e-04
5.774479e+00	1.969174e-02
5.784902e+00	2.437532e-01
5.795325e+00	5.637215e-01
5.805749e+00	2.435718e-01
5.816172e+00	1.966245e-02
5.826595e+00	2.965490e-04
5.837018e+00	8.356097e-07
5.847442e+00	4.409109e-10
5.857865e+00	1.208701e-09
5.868288e+00	2.712644e-07
5.878711e+00	1.137404e-05
5.889135e+00	8.910150e-05
5.899558e+00	1.304077e-04
5.909981e+00	3.565922e-05
5.920404e+00	1.928799e-06
5.930828e+00	1.307311e-05
5.941251e+00	2.974370e-04
5.951674e+00	1.266010e-03
5.962097e+00	1.006764e-03
5.972521e+00	1.496233e-04
5.982944e+00	1.298750e-05
5.993367e+00	3.180918e-04
6.003790e+00	2.139249e-03
6.014214e+00	2.688114e-03
6.024637e+00	6.310790e-04
6.035060e+00	2.970964e-05
6.045483e+00	3.359995e-04
6.055907e+00	1.037776e-02
6.066330e+00	5.992523e-02
6.076753e+00	6.464934e-02
6.087176e+00	1.303067e-02
6.097599e+00	4.907014e-04
6.108023e+00	3.452597e-06
6.118446e+00	1.837217e-07
6.128869e+00	2.544933e-05
6.139292e+00	6.753089e-04
6.149716e+00	3.347933e-03
6.160139e+00	3.100981e-03
6.170562e+00	5.366237e-04
6.180985e+00	1.777694e-05
6.191409e+00	1.766362e-04
6.201832e+00	1.362298e-02
6.212255e+00	1.964130e-01
6.222678e+00	5.290741e-01
6.233102e+00	2.662631e-01
6.243525e+00	2.503535e-02
6.253948e+00	4.397890e-04
6.264371e+00	1.443389e-06
6.274795e+00	8.850553e-10
6.285218e+00	6.141387e-34
6.295641e+00	5.603622e-33
6.306064e+00	1.116977e-12
6.316488e+00	2.876272e-09
6.326911e+00	1.383772e-06
6.337334e+00	1.243856e-04
6.347757e+00	2.093230e-03
6.358181e+00	7.105770e-03
6.368604e+00	1.642979e-02
6.379027e+00	5.400221e-02
6.389450e+00	4.261802e-02
6.399874e+00	6.330621e-03
6.410297e+00	1.757261e-04
6.420720e+00	2.344491e-06
6.431143e+00	1.747630e-04
6.441567e+00	3.981450e-03
6.451990e+00	1.694664e-02
6.462413e+00	1.347640e-02
6.472836e+00	2.002241e-03
6.483260e+00	6.514799e-05
6.493683e+00	1.002244e-03
6.504106e+00	1.960026e-02
6.514529e+00	7.186827e-02
6.524953e+00	5.380172e-02
6.535376e+00	2.416265e-02
6.545799e+00	1.238721e-02
6.556222e+00	1.561785e-03
6.566646e+00	3.720474e-05
6.577069e+00	1.656512e-07
6.587492e+00	1.381484e-10
6.597915e+00	1.048128e-09
6.608339e+00	5.873277e-07
6.618762e+00	6.149067e-05
6.629185e+00	1.204334e-03
6.639608e+00	4.627573e-03
6.650032e+00	9.170785e-03
6.660455e+00	3.106597e-02
6.670878e+00	3.093081e-02
6.681301e+00	1.775378e-02
6.691725e+00	1.206190e-02
6.702148e+00	2.060835e-03
6.712571e+00	6.659892e-05
6.722994e+00	4.022787e-07
6.733418e+00	4.539856e-10
6.743841e+00	4.759090e-33
6.754264e+00	1.183790e-31
6.764687e+00	5.868653e-31
6.775111e+00	5.435767e-31
6.785534e+00	9.407344e-32
6.795957e+00	9.508055e-13
6.806380e+00	3.868773e-09
6.816804e+00	2.941054e-06
6.827227e+00	4.177159e-04
6.837650e+00	1.108427e-02
6.848073e+00	5.495173e-02
6.858497e+00	5.089835e-02
6.868920e+00	8.807944e-03
6.879343e+00	2.892220e-04
6.889766e+00	7.383336e-04
6.900190e+00	2.276658e-02
6.910613e+00	1.314631e-01
6.921036e+00	1.418269e-01
6.931459e+00	2.861216e-02
6.941883e+00	2.330176e-03
6.952306e+00	1.144666e-02
6.962729e+00	1.950882e-02
6.973152e+00	6.519019e-03
6.983575e+00	2.443424e-03
6.993999e+00	2.610061e-03
7.004422e+00	6.117967e-04
7.014845e+00	2.683390e-05
7.025268e+00	2.198946e-07
7.035692e+00	3.366616e-10
7.046115e+00	9.629878e-14
7.056538e+00	6.237487e-34
7.066961e+00	3.536198e-11
7.077385e+00	4.947597e-08
7.087808e+00	1.293303e-05
7.098231e+00	6.316176e-04
7.108654e+00	5.763103e-03
7.119078e+00	9.824416e-03
7.129501e+00	3.128998e-03
7.139924e+00	1.861881e-04
7.150347e+00	2.069888e-06
7.160771e+00	4.299220e-09
7.171194e+00	1.668326e-12
7.181617e+00	4.410320e-33
7.192040e+00	4.687101e-32
7.202464e+00	9.306802e-32
7.212887e+00	3.472036e-32
7.223310e+00	8.844155e-13
7.233733e+00	2.652614e-09
7.244157e+00	1.486414e-06
7.254580e+00	1.556158e-04
7.265003e+00	3.043798e-03
7.275426e+00	1.112311e-02
7.285850e+00	7.594623e-03
7.296273e+00	1.084294e-03
7.306696e+00	6.683273e-03
7.317119e+00	7.493362e-02
7.327543e+00	1.866681e-01
7.337966e+00	1.339035e-01
7.348389e+00	3.656831e-02
7.358812e+00	1.123148e-01
7.369236e+00	3.422009e-01
7.379659e+00	1.990993e-01
7.390082e+00	3.624596e-02
7.400505e+00	5.417045e-02
7.410929e+00	3.668718e-02
7.421352e+00	4.679519e-03
7.431775e+00	1.115208e-04
7.442198e+00	4.965452e-07
7.452622e+00	4.130569e-10
7.463045e+00	1.047619e-31
7.473468e+00	2.370626e-32
7.483891e+00	7.871012e-33
7.494315e+00	1.363251e-09
7.504738e+00	1.405949e-06
7.515161e+00	2.709016e-04
7.525584e+00	9.752230e-03
7.536008e+00	6.560959e-02
7.546431e+00	8.369546e-02
7.556854e+00	3.515259e-02
7.567277e+00	3.739700e-02
7.577701e+00	1.579869e-02
7.588124e+00	1.274806e-03
7.598547e+00	1.922649e-05
7.608970e+00	9.284332e-08
7.619394e+00	1.371247e-05
7.629817e+00	9.085201e-04
7.640240e+00	1.124782e-02
7.650663e+00	2.616957e-02
7.661087e+00	1.394454e-02
7.671510e+00	9.399900e-03
7.681933e+00	4.991901e-03
7.692356e+00	5.452347e-04
7.702780e+00	1.215432e-05
7.713203e+00	3.601475e-05
7.723626e+00	2.420431e-04
7.734049e+00	3.412120e-04
7.744473e+00	2.525625e-03
7.754896e+00	3.027165e-02
7.765319e+00	6.978018e-02
7.775742e+00	3.006849e-02
7.786166e+00	2.421610e-03
7.796589e+00	3.644922e-05
7.807012e+00	2.217468e-07
7.817435e+00	2.675600e-05
7.827858e+00	1.121870e-03
7.838282e+00	8.788457e-03
7.848705e+00	1.286267e-02
7.859128e+00	3.517204e-03
7.869551e+00	1.800228e-04
7.879975e+00	3.206915e-05
7.890398e+00	5.097474e-04
7.900821e+00	1.603608e-03
7.911244e+00	1.551517e-03
7.921668e+00	1.640484e-02
7.932091e+00	8.164806e-02
7.942514e+00	9.177604e-02
7.952937e+00	7.490893e-02
7.963361e+00	4.280505e-02
7.973784e+00	9.449001e-03
7.984207e+00	3.709761e-02
7.994630e+00	6.428083e-02
8.005054e+00	4.467172e-02
8.015477e+00	8.994853e-02
8.025900e+00	6.002274e-02
8.036323e+00	7.599509e-03
8.046747e+00	1.954275e-04
8.057170e+00	1.375105e-03
8.067593e+00	2.307882e-02
8.078016e+00	7.240965e-02
8.088440e+00	4.248169e-02
8.098863e+00	4.990398e-03
8.109286e+00	6.783076e-04
8.119709e+00	1.861081e-04
8.130133e+00	1.105281e-05
8.140556e+00	1.228733e-07
8.150979e+00	2.552116e-10
8.161402e+00	1.903119e-12
8.171826e+00	7.342461e-09
8.182249e+00	5.585674e-06
8.192672e+00	7.955204e-04
8.203095e+00	2.133887e-02
8.213519e+00	1.102771e-01
8.223942e+00	1.185395e-01
8.234365e+00	3.170794e-02
8.244788e+00	2.453122e-03
8.255212e+00	4.884891e-05
8.265635e+00	2.066505e-07
8.276058e+00	1.882607e-10
8.286481e+00	2.333475e-08
8.296905e+00	5.246430e-06
8.307328e+00	2.228728e-04
8.317751e+00	1.910407e-03
8.328174e+00	4.544017e-03
8.338598e+00	4.713226e-03
8.349021e+00	1.528287e-03
8.359444e+00	1.038201e-04
8.369867e+00	1.340653e-06
8.380291e+00	1.184874e-07
8.390714e+00	4.012369e-05
8.401137e+00	2.615997e-03
8.411560e+00	3.193143e-02
8.421984e+00	7.295542e-02
8.432407e+00	3.177575e-02
8.442830e+00	2.360720e-02
8.453253e+00	1.420334e-01
8.463677e+00	1.784281e-01
8.474100e+00	4.192655e-02
8.484523e+00	5.795655e-03
8.494946e+00	7.743928e-02
8.505370e+00	2.829353e-01
8.515793e+00	1.931726e-01
8.526216e+00	2.464065e-02
8.536639e+00	5.874398e-04
8.547063e+00	6.168153e-06
8.557486e+00	1.115122e-05
8.567909e+00	6.535284e-06
8.578332e+00	7.200740e-07
8.588756e+00	1.154651e-06
8.599179e+00	5.567522e-05
8.609602e+00	5.080001e-04
8.620025e+00	8.660733e-04
8.630449e+00	2.873155e-04
8.640872e+00	3.238976e-04
8.651295e+00	1.672044e-03
8.661718e+00	3.374556e-03
8.672142e+00	4.938388e-03
8.682565e+00	6.773080e-03
8.692988e+00	3.240062e-02
8.703411e+00	4.051597e-02
8.713834e+00	9.511202e-03
8.724258e+00	4.171745e-04
8.734681e+00	3.418603e-06
8.745104e+00	5.233927e-09
8.755527e+00	8.146123e-11
8.765951e+00	7.080385e-08
8.776374e+00	1.171296e-05
8.786797e+00	3.620136e-04
8.797220e+00	2.090408e-03
8.807644e+00	2.255202e-03
8.818067e+00	4.545567e-04
8.828490e+00	1.711744e-05
8.838913e+00	1.204308e-07
8.849337e+00	1.590472e-10
8.859760e+00	1.920649e-09
8.870183e+00	9.240023e-07
8.880606e+00	8.305295e-05
8.891030e+00	1.394714e-03
8.901453e+00	4.375860e-03
8.911876e+00	2.565015e-03
8.922299e+00	2.809083e-04
8.932723e+00	5.747610e-06
8.943146e+00	2.197142e-08
8.953569e+00	1.569196e-11
8.963992e+00	4.032822e-33
8.974416e+00	5.806737e-32
8.984839e+00	1.564161e-31
8.995262e+00	7.887940e-32
9.005685e+00	1.169032e-32
9.016109e+00	2.139275e-32
9.026532e+00	1.969477e-32
9.036955e+00	3.408098e-33
9.047378e+00	1.101871e-34
9.057802e+00	6.655935e-37
9.068225e+00	3.250523e-38
9.078648e+00	1.164205e-35
9.089071e+00	3.177941e-11
9.099495e+00	4.446349e-08
9.109918e+00	1.162276e-05
9.120341e+00	5.676275e-04
9.130764e+00	5.179235e-03
9.141188e+00	8.829272e-03
9.151611e+00	2.828302e-03
9.162034e+00	4.411856e-04
9.172457e+00	8.613064e-04
9.182881e+00	5.207313e-04
9.193304e+00	3.013008e-04
9.203727e+00	6.641625e-04
9.214150e+00	3.366414e-04
9.224574e+00	5.242404e-04
9.234997e+00	1.547340e-02
9.245420e+00	9.488151e-02
9.255843e+00	1.368472e-01
9.266267e+00	7.462040e-02
9.276690e+00	2.377849e-02
9.287113e+00	1.575988e-02
9.297536e+00	4.933526e-03
9.307960e+00	3.097025e-04
9.318383e+00	1.422737e-04
9.328806e+00	3.157426e-03
9.339229e+00	1.343923e-02
9.349653e+00	1.068722e-02
9.360076e+00	1.590832e-03
9.370499e+00	4.104345e-04
9.380922e+00	8.346680e-03
9.391346e+00	3.552582e-02
9.401769e+00	2.825105e-02
9.412192e+00	4.197330e-03
9.422615e+00	1.165091e-04
9.433039e+00	6.042195e-07
9.443462e+00	5.854338e-10
9.453885e+00	1.888723e-12
9.464308e+00	7.685105e-09
9.474732e+00	5.842242e-06
9.485155e+00	8.297696e-04
9.495578e+00	2.201829e-02
9.506001e+00	1.091592e-01
9.516425e+00	1.011251e-01
9.526848e+00	1.775223e-02
9.537271e+00	2.200948e-03
9.547694e+00	2.410202e-03
9.558117e+00	8.553992e-04
9.568541e+00	2.582552e-03
9.578964e+00	6.865100e-03
9.589387e+00	3.925236e-03
9.599810e+00	8.272016e-03
9.610234e+00	2.509444e-02
9.620657e+00	1.662259e-02
9.631080e+00	6.884226e-03
9.641503e+00	1.026891e-02
9.651927e+00	2.566702e-02
9.662350e+00	4.072340e-02
9.672773e+00	3.023934e-02
9.683196e+00	5.453682e-03
9.693620e+00	3.098535e-03
9.704043e+00	8.538217e-03
9.714466e+00	2.054793e-02
9.724889e+00	1.853069e-02
9.735313e+00	1.372657e-02
9.745736e+00	7.878983e-03
9.756159e+00	1.136642e-03
9.766582e+00	5.870398e-03
9.777006e+00	4.580164e-02
9.787429e+00	6.710513e-02
9.797852e+00	2.093282e-02
9.808275e+00	1.971916e-02
9.818699e+00	3.098238e-02
9.829122e+00	1.522440e-02
9.839545e+00	2.298800e-03
9.849968e+00	1.450631e-03
9.860392e+00	1.251606e-02
9.870815e+00	2.133537e-02
9.881238e+00	6.809793e-03
9.891661e+00	1.125348e-03
9.902085e+00	6.658881e-03
9.912508e+00	1.270202e-02
9.922931e+00	1.556594e-02
9.933354e+00	2.053096e-02
9.943778e+00	6.741357e-03
9.954201e+00	1.335520e-03
9.964624e+00	6.516543e-04
9.975047e+00	8.257856e-05
9.985471e+00	1.992514e-06
9.995894e+00	7.541991e-06
1.000632e+01	4.285995e-04
1.001674e+01	4.571025e-03
1.002716e+01	9.653885e-03
1.003759e+01	7.467719e-03
1.004801e+01	5.401205e-03
1.005843e+01	1.216449e-03
1.006886e+01	5.323042e-05
1.007928e+01	4.361496e-07
1.008970e+01	3.949616e-09
1.010013e+01	2.494890e-06
1.011055e+01	3.543481e-04
1.012097e+01	9.403186e-03
1.013140e+01	4.666011e-02
1.014182e+01	4.405121e-02
1.015224e+01	1.068692e-02
1.016267e+01	3.288544e-03
1.017309e+01	7.084222e-03
1.018351e+01	1.164492e-02
1.019394e+01	2.867908e-02
1.020436e+01	7.561778e-02
1.021478e+01	4.239209e-02
1.022521e+01	4.640247e-03
1.023563e+01	9.968646e-05
1.024605e+01	1.997858e-06
1.025648e+01	9.210762e-05
1.026690e+01	1.157343e-03
1.027732e+01	2.935029e-03
1.028774e+01	1.750068e-03
1.029817e+01	1.132585e-02
1.030859e+01	7.527600e-02
1.031901e+01	9.458656e-02
1.032944e+01	2.220567e-02
1.033986e+01	9.739723e-04
1.035028e+01	7.981370e-06
1.036071e+01	1.225790e-08
1.037113e+01	4.173694e-08
1.038155e+01	8.945673e-06
1.039198e+01	3.762002e-04
1.040240e+01	3.082167e-03
1.041282e+01	4.876157e-03
1.042325e+01	1.476991e-03
1.043367e+01	1.030025e-04
1.044409e+01	3.529050e-04
1.045452e+01	1.286363e-03
1.046494e+01	9.014118e-04
1.047536e+01	1.106514e-03
1.048579e+01	8.341667e-03
1.049621e+01	1.492414e-02
1.050663e+01	6.603428e-03
1.051706e+01	8.190325e-04
1.052748e+01	4.143134e-04
1.053790e+01	6.690182e-04
1.054833e+01	2.130336e-04
1.055875e+01	1.268077e-05
1.056917e+01	4.342086e-07
1.057960e+01	3.743790e-06
1.059002e+01	1.125061e-05
1.060044e+01	2.086642e-05
1.061087e+01	2.970038e-04
1.062129e+01	3.051619e-03
1.063171e+01	6.056331e-03
1.064214e+01	2.246660e-03
1.065256e+01	1.557098e-04
1.066298e+01	2.016242e-06
1.067340e+01	4.877729e-09
1.068383e+01	2.204656e-12
1.069425e+01	9.450302e-15
1.070467e+01	3.845274e-11
1.071510e+01	2.923190e-08
1.072552e+01	4.151787e-06
1.073594e+01	1.101703e-04
1.074637e+01	5.464438e-04
1.075679e+01	5.221634e-04
1.076721e+01	3.421893e-04
1.077764e+01	1.519988e-03
1.078806e+01	2.902201e-03
1.079848e+01	1.211936e-03
1.080891e+01	9.754338e-05
1.081933e+01	1.827036e-05
1.082975e+01	2.080160e-04
1.084018e+01	4.811516e-04
1.085060e+01	2.318025e-04
1.086102e+01	1.265924e-03
1.087145e+01	1.273645e-02
1.088187e+01	2.591120e-02
1.089229e+01	1.071473e-02
1.090272e+01	9.564881e-04
1.091314e+01	9.808229e-04
1.092356e+01	3.527321e-03
1.093399e+01	2.412476e-03
1.094441e+01	7.529266e-04
1.095483e+01	8.725859e-03
1.096526e+01	3.186063e-02
1.097568e+01	2.175266e-02
1.098610e+01	2.774719e-03
1.099653e+01	6.612622e-05
1.100695e+01	2.986219e-07
1.101737e+01	2.137013e-06
1.102780e+01	2.069174e-04
1.103822e+01	3.846841e-03
1.104864e+01	1.413744e-02
1.105907e+01	1.123668e-02
1.106949e+01	2.325612e-03
1.107991e+01	1.397334e-04
1.109033e+01	2.096863e-06
1.110076e+01	6.572173e-09
1.111118e+01	6.531722e-10
1.112160e+01	5.151941e-07
1.113203e+01	7.698206e-05
1.114245e+01	2.199631e-03
1.115287e+01	1.302160e-02
1.116330e+01	2.144139e-02
1.117372e+01	1.532933e-02
1.118414e+01	1.120575e-02
1.119457e+01	1.690897e-02
1.120499e+01	3.267535e-02
1.121541e+01	3.068066e-02
1.122584e+01	2.773562e-02
1.123626e+01	8.456140e-03
1.124668e+01	6.259705e-04
1.125711e+01	6.071309e-05
1.126753e+01	1.221332e-05
1.127795e+01	1.302974e-04
1.128838e+01	4.090738e-04
1.129880e+01	3.083489e-04
1.130922e+01	1.873541e-03
1.131965e+01	9.503257e-03
1.133007e+01	9.882419e-03
1.134049e+01	2.343591e-03
1.135092e+01	1.451422e-04
1.136134e+01	2.298237e-06
1.137176e+01	9.939922e-07
1.138219e+01	8.611597e-05
1.139261e+01	1.410036e-03
1.140303e+01	4.335637e-03
1.141346e+01	2.936025e-03
1.142388e+01	4.366606e-03
1.143430e+01	7.277591e-03
1.144473e+01	9.953948e-03
1.145515e+01	4.495213e-02
1.146557e+01	5.887844e-02
1.147599e+01	2.275556e-02
1.148642e+01	4.726364e-02
1.149684e+01	8.719826e-02
1.150726e+01	5.714660e-02
1.151769e+01	1.399724e-02
1.152811e+01	4.017198e-03
1.153853e+01	4.642934e-03
1.154896e+01	3.798637e-03
1.155938e+01	1.149069e-02
1.156980e+01	1.299606e-02
1.158023e+01	3.981874e-03
1.159065e+01	4.341158e-03
1.160107e+01	2.475640e-02
1.161150e+01	4.195053e-02
1.162192e+01	2.521062e-02
1.163234e+01	5.126376e-03
1.164277e+01	3.431436e-04
1.165319e+01	3.203171e-04
1.166361e+01	2.587198e-04
1.167404e+01	2.702325e-04
1.168446e+01	1.618648e-03
1.169488e+01	3.647885e-03
1.170531e+01	1.047632e-02
1.171573e+01	1.656638e-02
1.172615e+01	2.431657e-02
1.173658e+01	1.524925e-02
1.174700e+01	2.132285e-03
1.175742e+01	8.880561e-04
1.176785e+01	6.722672e-04
1.177827e+01	3.699383e-04
1.178869e+01	5.747691e-03
1.179912e+01	2.541116e-02
1.180954e+01	2.545542e-02
1.181996e+01	6.105245e-03
1.183039e+01	3.396191e-04
1.184081e+01	2.264982e-04
1.185123e+01	5.070066e-03
1.186166e+01	2.158018e-02
1.187208e+01	1.716112e-02
1.188250e+01	2.550019e-03
1.189292e+01	1.380304e-04
1.190335e+01	2.429720e-03
1.191377e+01	1.649901e-02
1.192419e+01	2.131643e-02
1.193462e+01	5.403279e-03
1.194504e+01	2.878895e-04
1.195546e+01	4.925874e-06
1.196589e+01	3.781473e-05
1.197631e+01	3.556242e-04
1.198673e+01	3.154097e-03
1.199716e+01	9.408213e-03
1.200758e+01	5.499083e-03
1.201800e+01	6.021472e-04
1.202843e+01	1.329085e-05
1.203885e+01	9.357419e-05
1.204927e+01	1.826357e-03
1.205970e+01	6.673940e-03
1.207012e+01	4.556596e-03
1.208054e+01	5.812287e-04
1.209097e+01	1.385166e-05
1.210139e+01	6.167437e-08
1.211181e+01	5.153989e-11
1.212224e+01	3.304425e-10
1.213266e+01	8.910861e-08
1.214308e+01	5.692602e-06
1.215351e+01	1.757532e-04
1.216393e+01	2.460014e-03
1.217435e+01	8.374602e-03
1.218478e+01	1.233035e-02
1.219520e+01	2.067397e-02
1.220562e+01	1.012868e-02
1.221605e+01	9.520392e-04
1.222647e+01	1.796205e-05
1.223689e+01	3.976826e-07
1.224732e+01	1.754878e-08
1.225774e+01	1.671772e-10
1.226816e+01	2.981178e-13
1.227858e+01	5.398582e-11
1.228901e+01	6.859847e-08
1.229943e+01	1.749624e-05
1.230985e+01	9.535722e-04
1.232028e+01	1.177639e-02
1.233070e+01	3.333130e-02
1.234112e+01	2.612932e-02
1.235155e+01	2.254803e-02
1.236197e+01	1.321218e-02
1.237239e+01	3.881310e-03
1.238282e+01	9.184412e-04
1.239324e+01	5.772338e-05
1.240366e+01	6.994241e-07
1.241409e+01	3.376229e-09
1.242451e+01	5.201130e-07
1.243493e+01	4.469952e-05
1.244536e+01	1.686475e-03
1.245578e+01	1.870228e-02
1.246620e+01	4.255998e-02
1.247663e+01	1.834805e-02
1.248705e+01	1.480699e-03
1.249747e+01	2.292840e-05
1.250790e+01	3.964912e-05
1.251832e+01	4.900156e-04
1.252874e+01	1.133246e-03
1.253917e+01	4.896988e-04
1.254959e+01	4.630831e-05
1.256001e+01	1.805328e-04
1.257044e+01	8.920621e-04
1.258086e+01	8.268234e-04
1.259128e+01	2.118664e-04
1.260171e+01	1.583455e-03
1.261213e+01	6.977093e-03
1.262255e+01	7.217699e-03
1.263298e+01	1.035638e-02
1.264340e+01	3.017074e-02
1.265382e+01	2.042906e-02
1.266425e+01	2.633580e-03
1.267467e+01	2.991755e-04
1.268509e+01	7.169806e-04
1.269551e+01	2.330952e-03
1.270594e+01	2.447981e-03
1.271636e+01	1.019920e-03
1.272678e+01	2.404727e-03
1.273721e+01	3.040077e-03
1.274763e+01	1.407279e-03
1.275805e+01	7.901284e-04
1.276848e+01	5.287645e-03
1.277890e+01	3.178862e-02
1.278932e+01	4.308138e-02
1.279975e+01	3.332239e-02
1.281017e+01	3.627851e-02
1.282059e+01	1.825837e-02
1.283102e+01	4.333208e-03
1.284144e+01	4.497869e-04
1.285186e+01	2.164574e-03
1.286229e+01	5.195980e-03
1.287271e+01	2.495919e-03
1.288313e+01	2.073128e-03
1.289356e+01	1.235857e-02
1.290398e+01	1.555290e-02
1.291440e+01	5.038896e-03
1.292483e+01	1.318443e-02
1.293525e+01	2.524038e-02
1.294567e+01	1.060855e-02
1.295610e+01	2.977539e-03
1.296652e+01	2.075464e-02
1.297694e+01	4.096765e-02
1.298737e+01	1.526447e-02
1.299779e+01	1.398567e-03
1.300821e+01	3.641997e-04
1.301864e+01	2.359849e-03
1.302906e+01	1.351230e-02
1.303948e+01	2.119315e-02
1.304991e+01	2.604767e-02
1.306033e+01	3.075326e-02
1.307075e+01	1.328984e-02
1.308117e+01	4.280775e-03
1.309160e+01	5.202607e-03
1.310202e+01	7.013965e-03
1.311244e+01	3.330400e-03
1.312287e+01	9.947636e-03
1.313329e+01	2.236782e-02
1.314371e+01	1.942937e-02
1.315414e+01	4.500989e-03
1.316456e+01	6.361842e-03
1.317498e+01	3.455670e-02
1.318541e+01	4.683831e-02
1.319583e+01	1.687671e-02
1.320625e+01	2.067371e-03
1.321668e+01	7.989917e-03
1.322710e+01	2.120771e-02
1.323752e+01	1.059744e-02
1.324795e+01	9.948873e-04
1.325837e+01	9.602937e-05
1.326879e+01	3.910940e-04
1.327922e+01	4.009229e-04
1.328964e+01	1.113110e-03
1.330006e+01	8.935652e-03
1.331049e+01	2.524487e-02
1.332091e+01	3.130287e-02
1.333133e+01	1.130600e-02
1.334176e+01	9.849745e-03
1.335218e+01	2.416525e-02
1.336260e+01	1.230028e-02
1.337303e+01	5.447480e-03
1.338345e+01	1.759940e-02
1.339387e+01	2.344924e-02
1.340430e+01	1.826566e-02
1.341472e+01	2.413429e-02
1.342514e+01	1.534514e-02
1.343557e+01	2.427296e-03
1.344599e+01	3.768292e-04
1.345641e+01	2.576432e-03
1.346684e+01	4.484106e-03
1.347726e+01	1.956661e-03
1.348768e+01	3.300543e-04
1.349810e+01	1.864271e-05
1.350853e+01	2.392413e-07
1.351895e+01	1.822474e-06
1.352937e+01	9.980066e-05
1.353980e+01	1.034858e-03
1.355022e+01	2.024315e-03
1.356064e+01	9.180232e-04
1.357107e+01	3.462168e-03
1.358149e+01	1.246503e-02
1.359191e+01	8.511344e-03
1.360234e+01	1.085938e-03
1.361276e+01	2.734654e-05
1.362318e+01	5.660449e-05
1.363361e+01	4.923798e-04
1.364403e+01	1.061060e-03
1.365445e+01	6.061048e-04
1.366488e+01	1.367572e-04
1.367530e+01	7.804155e-05
1.368572e+01	2.834227e-05
1.369615e+01	4.503914e-04
1.370657e+01	6.014981e-03
1.371699e+01	2.518789e-02
1.372742e+01	3.766931e-02
1.373784e+01	1.709216e-02
1.374826e+01	2.628854e-02
1.375869e+01	4.949068e-02
1.376911e+01	1.832162e-02
1.377953e+01	1.269358e-03
1.378996e+01	1.768801e-05
1.380038e+01	6.191796e-05
1.381080e+01	5.830018e-04
1.382123e+01	1.085664e-03
1.383165e+01	4.591591e-04
1.384207e+01	4.156387e-04
1.385250e+01	1.614422e-03
1.386292e+01	3.399264e-03
1.387334e+01	7.767840e-03
1.388377e+01	5.894076e-03
1.389419e+01	8.734123e-04
1.390461e+01	2.731791e-05
1.391503e+01	2.214312e-04
1.392546e+01	4.388892e-03
1.393588e+01	1.820446e-02
1.394630e+01	1.454018e-02
1.395673e+01	2.241570e-03
1.396715e+01	9.639424e-05
1.397757e+01	1.479123e-04
1.398800e+01	2.751004e-04
1.399842e+01	2.158982e-03
1.400884e+01	1.461891e-02
1.401927e+01	2.873816e-02
1.402969e+01	1.272705e-02
1.404011e+01	2.442794e-03
1.405054e+01	4.836844e-03
1.406096e+01	3.627669e-03
1.407138e+01	5.342740e-03
1.408181e+01	1.327798e-02
1.409223e+01	7.098381e-03
1.410265e+01	6.738106e-03
1.411308e+01	1.647131e-02
1.412350e+01	8.331302e-03
1.413392e+01	1.732162e-03
1.414435e+01	3.846378e-03
1.415477e+01	3.931729e-03
1.416519e+01	1.531371e-03
1.417562e+01	7.411356e-04
1.418604e+01	2.380502e-03
1.419646e+01	1.968522e-03
1.420689e+01	8.295533e-04
1.421731e+01	9.553480e-04
1.422773e+01	3.914123e-03
1.423816e+01	1.025498e-02
1.424858e+01	8.906965e-03
1.425900e+01	1.469811e-02
1.426943e+01	1.174132e-02
1.427985e+01	1.261161e-02
1.429027e+01	1.908930e-02
1.430069e+01	2.420004e-02
1.431112e+01	1.323080e-02
1.432154e+01	9.331690e-03
1.433196e+01	2.939715e-02
1.434239e+01	2.154247e-02
1.435281e+01	3.562535e-03
1.436323e+01	1.566433e-03
1.437366e+01	2.101974e-03
1.438408e+01	5.744086e-04
1.439450e+01	3.112720e-05
1.440493e+01	1.748366e-04
1.441535e+01	3.303265e-03
1.442577e+01	1.214267e-02
1.443620e+01	9.350731e-03
1.444662e+01	1.060020e-02
1.445704e+01	2.708222e-02
1.446747e+01	2.489645e-02
1.447789e+01	1.769942e-02
1.448831e+01	1.004388e-02
1.449874e+01	6.512446e-03
1.450916e+01	1.336156e-03
1.451958e+01	6.066183e-05
1.453001e+01	6.585548e-07
1.454043e+01	7.952087e-06
1.455085e+01	1.567520e-04
1.456128e+01	7.232832e-04
1.457170e+01	3.921530e-03
1.458212e+01	1.508993e-02
1.459255e+01	1.196175e-02
1.460297e+01	1.779960e-03
1.461339e+01	1.466406e-04
1.462382e+01	8.689214e-04
1.463424e+01	3.735892e-03
1.464466e+01	5.524052e-03
1.465509e+01	1.727669e-03
1.466551e+01	1.180982e-04
1.467593e+01	6.471341e-04
1.468636e+01	5.728614e-03
1.469678e+01	9.918958e-03
1.470720e+01	3.696838e-03
1.471762e+01	8.055561e-04
1.472805e+01	4.947598e-04
1.473847e+01	2.226878e-04
1.474889e+01	1.348150e-03
1.475932e+01	9.642629e-03
1.476974e+01	2.753668e-02
1.478016e+01	3.661715e-02
1.479059e+01	1.684698e-02
1.480101e+01	2.109285e-03
1.481143e+01	3.142666e-03
1.482186e+01	1.288523e-02
1.483228e+01	1.174699e-02
1.484270e+01	6.562898e-03
1.485313e+01	4.975909e-03
1.486355e+01	8.379775e-03
1.487397e+01	1.457952e-02
1.488440e+01	5.958762e-03
1.489482e+01	3.708013e-03
1.490524e+01	7.255376e-03
1.491567e+01	9.348906e-03
1.492609e+01	6.414144e-03
1.493651e+01	7.939538e-03
1.494694e+01	2.518038e-02
1.495736e+01	1.801249e-02
1.496778e+01	4.569364e-03
1.497821e+01	1.251040e-03
1.498863e+01	1.129474e-04
1.499905e+01	1.980194e-06
1.500000e+01	1.261819e-06