File: cif_pxrd_calculator/txt/itwotheta/li0.5tio2_li0.5tio2_8262.txt
# 2theta [deg]	I_scaled [a.u.]	Wavelength = 0.20721 Å
0.000000e+00	0.000000e+00
1.042325e-02	0.000000e+00
2.084649e-02	0.000000e+00
3.126974e-02	0.000000e+00
4.169299e-02	0.000000e+00
5.211623e-02	0.000000e+00
6.253948e-02	0.000000e+00
7.296273e-02	0.000000e+00
8.338598e-02	0.000000e+00
9.380922e-02	0.000000e+00
1.042325e-01	0.000000e+00
1.146557e-01	0.000000e+00
1.250790e-01	0.000000e+00
1.355022e-01	0.000000e+00
1.459255e-01	0.000000e+00
1.563487e-01	0.000000e+00
1.667720e-01	0.000000e+00
1.771952e-01	0.000000e+00
1.876184e-01	0.000000e+00
1.980417e-01	0.000000e+00
2.084649e-01	0.000000e+00
2.188882e-01	0.000000e+00
2.293114e-01	0.000000e+00
2.397347e-01	0.000000e+00
2.501579e-01	0.000000e+00
2.605812e-01	0.000000e+00
2.710044e-01	0.000000e+00
2.814277e-01	0.000000e+00
2.918509e-01	0.000000e+00
3.022742e-01	0.000000e+00
3.126974e-01	0.000000e+00
3.231207e-01	0.000000e+00
3.335439e-01	0.000000e+00
3.439672e-01	0.000000e+00
3.543904e-01	0.000000e+00
3.648136e-01	0.000000e+00
3.752369e-01	0.000000e+00
3.856601e-01	0.000000e+00
3.960834e-01	0.000000e+00
4.065066e-01	0.000000e+00
4.169299e-01	0.000000e+00
4.273531e-01	0.000000e+00
4.377764e-01	0.000000e+00
4.481996e-01	0.000000e+00
4.586229e-01	0.000000e+00
4.690461e-01	0.000000e+00
4.794694e-01	0.000000e+00
4.898926e-01	0.000000e+00
5.003159e-01	0.000000e+00
5.107391e-01	0.000000e+00
5.211623e-01	0.000000e+00
5.315856e-01	0.000000e+00
5.420088e-01	0.000000e+00
5.524321e-01	0.000000e+00
5.628553e-01	0.000000e+00
5.732786e-01	0.000000e+00
5.837018e-01	0.000000e+00
5.941251e-01	0.000000e+00
6.045483e-01	0.000000e+00
6.149716e-01	0.000000e+00
6.253948e-01	0.000000e+00
6.358181e-01	0.000000e+00
6.462413e-01	0.000000e+00
6.566646e-01	0.000000e+00
6.670878e-01	0.000000e+00
6.775111e-01	0.000000e+00
6.879343e-01	0.000000e+00
6.983575e-01	0.000000e+00
7.087808e-01	0.000000e+00
7.192040e-01	0.000000e+00
7.296273e-01	0.000000e+00
7.400505e-01	0.000000e+00
7.504738e-01	0.000000e+00
7.608970e-01	0.000000e+00
7.713203e-01	0.000000e+00
7.817435e-01	0.000000e+00
7.921668e-01	0.000000e+00
8.025900e-01	0.000000e+00
8.130133e-01	0.000000e+00
8.234365e-01	0.000000e+00
8.338598e-01	0.000000e+00
8.442830e-01	0.000000e+00
8.547063e-01	0.000000e+00
8.651295e-01	0.000000e+00
8.755527e-01	0.000000e+00
8.859760e-01	0.000000e+00
8.963992e-01	0.000000e+00
9.068225e-01	0.000000e+00
9.172457e-01	0.000000e+00
9.276690e-01	0.000000e+00
9.380922e-01	0.000000e+00
9.485155e-01	0.000000e+00
9.589387e-01	0.000000e+00
9.693620e-01	0.000000e+00
9.797852e-01	0.000000e+00
9.902085e-01	0.000000e+00
1.000632e+00	0.000000e+00
1.011055e+00	0.000000e+00
1.021478e+00	0.000000e+00
1.031901e+00	0.000000e+00
1.042325e+00	0.000000e+00
1.052748e+00	0.000000e+00
1.063171e+00	0.000000e+00
1.073594e+00	0.000000e+00
1.084018e+00	0.000000e+00
1.094441e+00	0.000000e+00
1.104864e+00	0.000000e+00
1.115287e+00	0.000000e+00
1.125711e+00	0.000000e+00
1.136134e+00	0.000000e+00
1.146557e+00	0.000000e+00
1.156980e+00	0.000000e+00
1.167404e+00	0.000000e+00
1.177827e+00	0.000000e+00
1.188250e+00	8.362541e-42
1.198673e+00	2.508164e-38
1.209097e+00	1.405470e-35
1.219520e+00	1.471417e-33
1.229943e+00	2.878046e-32
1.240366e+00	1.051739e-31
1.250790e+00	7.180695e-32
1.261213e+00	9.159528e-33
1.271636e+00	2.182870e-34
1.282059e+00	9.719205e-37
1.292483e+00	8.085033e-40
1.302906e+00	0.000000e+00
1.313329e+00	0.000000e+00
1.323752e+00	0.000000e+00
1.334176e+00	0.000000e+00
1.344599e+00	0.000000e+00
1.355022e+00	0.000000e+00
1.365445e+00	0.000000e+00
1.375869e+00	0.000000e+00
1.386292e+00	0.000000e+00
1.396715e+00	0.000000e+00
1.407138e+00	0.000000e+00
1.417562e+00	0.000000e+00
1.427985e+00	0.000000e+00
1.438408e+00	0.000000e+00
1.448831e+00	0.000000e+00
1.459255e+00	0.000000e+00
1.469678e+00	0.000000e+00
1.480101e+00	0.000000e+00
1.490524e+00	0.000000e+00
1.500948e+00	0.000000e+00
1.511371e+00	0.000000e+00
1.521794e+00	0.000000e+00
1.532217e+00	0.000000e+00
1.542641e+00	0.000000e+00
1.553064e+00	0.000000e+00
1.563487e+00	0.000000e+00
1.573910e+00	0.000000e+00
1.584334e+00	0.000000e+00
1.594757e+00	0.000000e+00
1.605180e+00	0.000000e+00
1.615603e+00	0.000000e+00
1.626027e+00	0.000000e+00
1.636450e+00	0.000000e+00
1.646873e+00	0.000000e+00
1.657296e+00	0.000000e+00
1.667720e+00	0.000000e+00
1.678143e+00	0.000000e+00
1.688566e+00	0.000000e+00
1.698989e+00	0.000000e+00
1.709413e+00	0.000000e+00
1.719836e+00	0.000000e+00
1.730259e+00	0.000000e+00
1.740682e+00	0.000000e+00
1.751105e+00	0.000000e+00
1.761529e+00	0.000000e+00
1.771952e+00	0.000000e+00
1.782375e+00	0.000000e+00
1.792798e+00	0.000000e+00
1.803222e+00	0.000000e+00
1.813645e+00	0.000000e+00
1.824068e+00	0.000000e+00
1.834491e+00	0.000000e+00
1.844915e+00	0.000000e+00
1.855338e+00	0.000000e+00
1.865761e+00	0.000000e+00
1.876184e+00	0.000000e+00
1.886608e+00	0.000000e+00
1.897031e+00	0.000000e+00
1.907454e+00	0.000000e+00
1.917877e+00	0.000000e+00
1.928301e+00	0.000000e+00
1.938724e+00	0.000000e+00
1.949147e+00	0.000000e+00
1.959570e+00	0.000000e+00
1.969994e+00	0.000000e+00
1.980417e+00	0.000000e+00
1.990840e+00	0.000000e+00
2.001263e+00	0.000000e+00
2.011687e+00	0.000000e+00
2.022110e+00	0.000000e+00
2.032533e+00	0.000000e+00
2.042956e+00	0.000000e+00
2.053380e+00	0.000000e+00
2.063803e+00	0.000000e+00
2.074226e+00	0.000000e+00
2.084649e+00	0.000000e+00
2.095073e+00	0.000000e+00
2.105496e+00	0.000000e+00
2.115919e+00	0.000000e+00
2.126342e+00	0.000000e+00
2.136766e+00	0.000000e+00
2.147189e+00	0.000000e+00
2.157612e+00	0.000000e+00
2.168035e+00	0.000000e+00
2.178459e+00	0.000000e+00
2.188882e+00	0.000000e+00
2.199305e+00	0.000000e+00
2.209728e+00	0.000000e+00
2.220152e+00	0.000000e+00
2.230575e+00	0.000000e+00
2.240998e+00	0.000000e+00
2.251421e+00	0.000000e+00
2.261845e+00	0.000000e+00
2.272268e+00	0.000000e+00
2.282691e+00	0.000000e+00
2.293114e+00	0.000000e+00
2.303538e+00	0.000000e+00
2.313961e+00	8.116228e-42
2.324384e+00	1.794353e-38
2.334807e+00	7.411562e-36
2.345231e+00	5.719522e-34
2.355654e+00	8.246276e-33
2.366077e+00	2.221285e-32
2.376500e+00	1.117889e-32
2.386924e+00	1.051093e-33
2.397347e+00	1.846427e-35
2.407770e+00	6.059977e-38
2.418193e+00	3.715849e-41
2.428617e+00	0.000000e+00
2.439040e+00	1.866809e-10
2.449463e+00	2.242465e-07
2.459886e+00	5.032682e-05
2.470310e+00	2.110190e-03
2.480733e+00	1.653072e-02
2.491156e+00	2.419414e-02
2.501579e+00	6.615713e-03
2.512003e+00	3.379803e-04
2.522426e+00	3.225924e-06
2.532849e+00	5.752613e-09
2.543272e+00	1.916568e-12
2.553696e+00	0.000000e+00
2.564119e+00	0.000000e+00
2.574542e+00	0.000000e+00
2.584965e+00	0.000000e+00
2.595389e+00	0.000000e+00
2.605812e+00	0.000000e+00
2.616235e+00	0.000000e+00
2.626658e+00	2.981073e-08
2.637081e+00	2.639577e-05
2.647505e+00	4.366608e-03
2.657928e+00	1.349591e-01
2.668351e+00	7.793069e-01
2.678774e+00	8.407423e-01
2.689198e+00	1.694593e-01
2.699621e+00	6.381403e-03
2.710044e+00	4.489676e-05
2.720467e+00	5.901495e-08
2.730891e+00	1.449296e-11
2.741314e+00	0.000000e+00
2.751737e+00	0.000000e+00
2.762160e+00	0.000000e+00
2.772584e+00	0.000000e+00
2.783007e+00	0.000000e+00
2.793430e+00	0.000000e+00
2.803853e+00	0.000000e+00
2.814277e+00	0.000000e+00
2.824700e+00	0.000000e+00
2.835123e+00	0.000000e+00
2.845546e+00	0.000000e+00
2.855970e+00	0.000000e+00
2.866393e+00	0.000000e+00
2.876816e+00	0.000000e+00
2.887239e+00	0.000000e+00
2.897663e+00	0.000000e+00
2.908086e+00	0.000000e+00
2.918509e+00	0.000000e+00
2.928932e+00	0.000000e+00
2.939356e+00	0.000000e+00
2.949779e+00	0.000000e+00
2.960202e+00	0.000000e+00
2.970625e+00	0.000000e+00
2.981049e+00	0.000000e+00
2.991472e+00	0.000000e+00
3.001895e+00	0.000000e+00
3.012318e+00	0.000000e+00
3.022742e+00	0.000000e+00
3.033165e+00	0.000000e+00
3.043588e+00	0.000000e+00
3.054011e+00	0.000000e+00
3.064435e+00	0.000000e+00
3.074858e+00	0.000000e+00
3.085281e+00	0.000000e+00
3.095704e+00	0.000000e+00
3.106128e+00	0.000000e+00
3.116551e+00	0.000000e+00
3.126974e+00	0.000000e+00
3.137397e+00	0.000000e+00
3.147821e+00	0.000000e+00
3.158244e+00	0.000000e+00
3.168667e+00	0.000000e+00
3.179090e+00	0.000000e+00
3.189514e+00	0.000000e+00
3.199937e+00	0.000000e+00
3.210360e+00	0.000000e+00
3.220783e+00	0.000000e+00
3.231207e+00	0.000000e+00
3.241630e+00	0.000000e+00
3.252053e+00	0.000000e+00
3.262476e+00	0.000000e+00
3.272900e+00	0.000000e+00
3.283323e+00	0.000000e+00
3.293746e+00	0.000000e+00
3.304169e+00	0.000000e+00
3.314593e+00	0.000000e+00
3.325016e+00	0.000000e+00
3.335439e+00	0.000000e+00
3.345862e+00	0.000000e+00
3.356286e+00	0.000000e+00
3.366709e+00	0.000000e+00
3.377132e+00	8.904277e-13
3.387555e+00	3.623100e-09
3.397979e+00	2.754293e-06
3.408402e+00	3.911902e-04
3.418825e+00	1.038040e-02
3.429248e+00	5.146220e-02
3.439672e+00	4.766622e-02
3.450095e+00	8.248620e-03
3.460518e+00	2.666859e-04
3.470941e+00	1.610894e-06
3.481364e+00	1.817950e-09
3.491788e+00	0.000000e+00
3.502211e+00	0.000000e+00
3.512634e+00	0.000000e+00
3.523057e+00	0.000000e+00
3.533481e+00	0.000000e+00
3.543904e+00	0.000000e+00
3.554327e+00	0.000000e+00
3.564750e+00	0.000000e+00
3.575174e+00	0.000000e+00
3.585597e+00	0.000000e+00
3.596020e+00	0.000000e+00
3.606443e+00	0.000000e+00
3.616867e+00	0.000000e+00
3.627290e+00	0.000000e+00
3.637713e+00	0.000000e+00
3.648136e+00	0.000000e+00
3.658560e+00	0.000000e+00
3.668983e+00	0.000000e+00
3.679406e+00	1.479331e-41
3.689829e+00	3.270536e-38
3.700253e+00	1.350892e-35
3.710676e+00	1.042487e-33
3.721099e+00	1.503034e-32
3.731522e+00	4.048696e-32
3.741946e+00	2.037556e-32
3.752369e+00	1.915809e-33
3.762792e+00	3.365449e-35
3.773215e+00	1.104541e-37
3.783639e+00	6.772812e-41
3.794062e+00	0.000000e+00
3.804485e+00	0.000000e+00
3.814908e+00	0.000000e+00
3.825332e+00	0.000000e+00
3.835755e+00	0.000000e+00
3.846178e+00	0.000000e+00
3.856601e+00	0.000000e+00
3.867025e+00	0.000000e+00
3.877448e+00	0.000000e+00
3.887871e+00	0.000000e+00
3.898294e+00	0.000000e+00
3.908718e+00	0.000000e+00
3.919141e+00	0.000000e+00
3.929564e+00	0.000000e+00
3.939987e+00	0.000000e+00
3.950411e+00	0.000000e+00
3.960834e+00	0.000000e+00
3.971257e+00	0.000000e+00
3.981680e+00	1.538644e-41
3.992104e+00	2.152761e-38
4.002527e+00	5.627322e-36
4.012950e+00	2.748247e-34
4.023373e+00	2.507598e-33
4.033797e+00	4.274726e-33
4.044220e+00	1.361466e-33
4.054643e+00	8.101277e-35
4.065066e+00	9.006339e-37
4.075490e+00	1.870645e-39
4.085913e+00	7.259094e-43
4.096336e+00	0.000000e+00
4.106759e+00	0.000000e+00
4.117183e+00	0.000000e+00
4.127606e+00	0.000000e+00
4.138029e+00	0.000000e+00
4.148452e+00	0.000000e+00
4.158876e+00	0.000000e+00
4.169299e+00	3.509448e-41
4.179722e+00	4.910170e-38
4.190145e+00	1.283519e-35
4.200569e+00	6.268396e-34
4.210992e+00	5.719507e-33
4.221415e+00	9.750097e-33
4.231838e+00	3.105328e-33
4.242262e+00	1.847796e-34
4.252685e+00	2.054229e-36
4.263108e+00	4.266698e-39
4.273531e+00	1.655705e-42
4.283955e+00	0.000000e+00
4.294378e+00	0.000000e+00
4.304801e+00	0.000000e+00
4.315224e+00	0.000000e+00
4.325648e+00	0.000000e+00
4.336071e+00	0.000000e+00
4.346494e+00	0.000000e+00
4.356917e+00	0.000000e+00
4.367340e+00	1.425354e-10
4.377764e+00	3.151204e-07
4.388187e+00	1.301602e-04
4.398610e+00	1.004450e-02
4.409033e+00	1.448193e-01
4.419457e+00	3.900971e-01
4.429880e+00	1.963212e-01
4.440303e+00	1.845907e-02
4.450726e+00	3.242654e-04
4.461150e+00	1.064240e-06
4.471573e+00	6.525693e-10
4.481996e+00	0.000000e+00
4.492419e+00	0.000000e+00
4.502843e+00	0.000000e+00
4.513266e+00	0.000000e+00
4.523689e+00	0.000000e+00
4.534112e+00	0.000000e+00
4.544536e+00	0.000000e+00
4.554959e+00	0.000000e+00
4.565382e+00	0.000000e+00
4.575805e+00	0.000000e+00
4.586229e+00	0.000000e+00
4.596652e+00	0.000000e+00
4.607075e+00	0.000000e+00
4.617498e+00	0.000000e+00
4.627922e+00	4.800340e-10
4.638345e+00	4.250438e-07
4.648768e+00	7.031430e-05
4.659191e+00	2.173210e-03
4.669615e+00	1.254897e-02
4.680038e+00	1.353824e-02
4.690461e+00	2.728771e-03
4.700884e+00	1.125913e-04
4.711308e+00	1.369522e-03
4.721731e+00	3.726093e-02
4.732154e+00	1.967243e-01
4.742577e+00	1.996464e-01
4.753001e+00	3.863508e-02
4.763424e+00	1.416636e-03
4.773847e+00	9.796476e-06
4.784270e+00	1.277569e-08
4.794694e+00	1.038801e-07
4.805117e+00	4.997508e-05
4.815540e+00	4.491956e-03
4.825963e+00	7.543373e-02
4.836387e+00	2.366704e-01
4.846810e+00	1.387300e-01
4.857233e+00	1.519306e-02
4.867656e+00	3.120713e-04
4.878080e+00	4.472025e-05
4.888503e+00	2.927839e-04
4.898926e+00	3.679022e-04
4.909349e+00	8.637079e-05
4.919773e+00	3.788346e-06
4.930196e+00	3.164710e-08
4.940619e+00	5.338885e-07
4.951042e+00	8.831242e-05
4.961466e+00	2.729480e-03
4.971889e+00	1.576108e-02
4.982312e+00	1.700358e-02
4.992735e+00	3.427228e-03
5.003159e+00	1.290606e-04
5.013582e+00	9.080141e-07
5.024005e+00	1.193547e-09
5.034428e+00	2.931128e-13
5.044852e+00	0.000000e+00
5.055275e+00	0.000000e+00
5.065698e+00	0.000000e+00
5.076121e+00	0.000000e+00
5.086545e+00	0.000000e+00
5.096968e+00	0.000000e+00
5.107391e+00	0.000000e+00
5.117814e+00	0.000000e+00
5.128238e+00	0.000000e+00
5.138661e+00	0.000000e+00
5.149084e+00	0.000000e+00
5.159507e+00	0.000000e+00
5.169931e+00	0.000000e+00
5.180354e+00	0.000000e+00
5.190777e+00	0.000000e+00
5.201200e+00	0.000000e+00
5.211623e+00	0.000000e+00
5.222047e+00	0.000000e+00
5.232470e+00	0.000000e+00
5.242893e+00	5.054273e-11
5.253316e+00	1.301501e-07
5.263740e+00	6.261497e-05
5.274163e+00	5.628078e-03
5.284586e+00	9.451272e-02
5.295009e+00	2.965299e-01
5.305433e+00	1.738181e-01
5.315856e+00	1.903852e-02
5.326279e+00	6.399424e-04
5.336702e+00	4.207414e-03
5.347126e+00	1.319592e-02
5.357549e+00	7.735105e-03
5.367972e+00	8.471120e-04
5.378395e+00	1.733260e-05
5.388819e+00	6.625742e-08
5.399242e+00	4.732096e-11
5.409665e+00	0.000000e+00
5.420088e+00	0.000000e+00
5.430512e+00	0.000000e+00
5.440935e+00	2.461761e-41
5.451358e+00	6.339158e-38
5.461781e+00	1.526708e-10
5.472205e+00	2.136061e-07
5.482628e+00	5.583667e-05
5.493051e+00	2.726927e-03
5.503474e+00	2.488145e-02
5.513898e+00	4.241565e-02
5.524321e+00	1.350904e-02
5.534744e+00	8.038430e-04
5.545167e+00	8.936471e-06
5.555591e+00	1.856133e-08
5.566014e+00	7.202780e-12
5.576437e+00	0.000000e+00
5.586860e+00	0.000000e+00
5.597284e+00	0.000000e+00
5.607707e+00	0.000000e+00
5.618130e+00	0.000000e+00
5.628553e+00	0.000000e+00
5.638977e+00	0.000000e+00
5.649400e+00	0.000000e+00
5.659823e+00	0.000000e+00
5.670246e+00	0.000000e+00
5.680670e+00	0.000000e+00
5.691093e+00	0.000000e+00
5.701516e+00	0.000000e+00
5.711939e+00	0.000000e+00
5.722363e+00	0.000000e+00
5.732786e+00	0.000000e+00
5.743209e+00	0.000000e+00
5.753632e+00	0.000000e+00
5.764056e+00	0.000000e+00
5.774479e+00	0.000000e+00
5.784902e+00	0.000000e+00
5.795325e+00	0.000000e+00
5.805749e+00	0.000000e+00
5.816172e+00	0.000000e+00
5.826595e+00	0.000000e+00
5.837018e+00	0.000000e+00
5.847442e+00	0.000000e+00
5.857865e+00	0.000000e+00
5.868288e+00	0.000000e+00
5.878711e+00	0.000000e+00
5.889135e+00	0.000000e+00
5.899558e+00	0.000000e+00
5.909981e+00	0.000000e+00
5.920404e+00	0.000000e+00
5.930828e+00	5.229763e-11
5.941251e+00	1.156207e-07
5.951674e+00	4.775705e-05
5.962097e+00	3.685424e-03
5.972521e+00	5.313561e-02
5.982944e+00	1.431304e-01
5.993367e+00	7.203419e-02
6.003790e+00	7.108856e-03
6.014214e+00	1.050512e-02
6.024637e+00	5.997406e-02
6.035060e+00	6.470160e-02
6.045483e+00	1.304120e-02
6.055907e+00	4.910981e-04
6.066330e+00	3.455152e-06
6.076753e+00	4.541655e-09
6.087176e+00	1.115345e-12
6.097599e+00	0.000000e+00
6.108023e+00	0.000000e+00
6.118446e+00	0.000000e+00
6.128869e+00	0.000000e+00
6.139292e+00	0.000000e+00
6.149716e+00	0.000000e+00
6.160139e+00	0.000000e+00
6.170562e+00	8.155288e-41
6.180985e+00	1.247376e-37
6.191409e+00	3.637772e-35
6.201832e+00	2.026466e-33
6.212255e+00	2.158315e-32
6.222678e+00	4.394601e-32
6.233102e+00	1.708711e-32
6.243525e+00	1.266248e-33
6.253948e+00	1.783999e-35
6.264371e+00	4.765718e-38
6.274795e+00	2.407542e-41
6.285218e+00	0.000000e+00
6.295641e+00	2.796943e-11
6.306064e+00	2.884545e-08
6.316488e+00	5.558009e-06
6.326911e+00	2.000826e-04
6.337334e+00	1.345698e-03
6.347757e+00	1.690962e-03
6.358181e+00	3.969800e-04
6.368604e+00	1.768015e-05
6.379027e+00	6.030137e-05
6.389450e+00	2.522437e-03
6.399874e+00	1.976016e-02
6.410297e+00	2.892071e-02
6.420720e+00	7.908160e-03
6.431143e+00	4.040081e-04
6.441567e+00	3.856141e-06
6.451990e+00	6.876444e-09
6.462413e+00	2.290989e-12
6.472836e+00	0.000000e+00
6.483260e+00	0.000000e+00
6.493683e+00	0.000000e+00
6.504106e+00	0.000000e+00
6.514529e+00	0.000000e+00
6.524953e+00	0.000000e+00
6.535376e+00	0.000000e+00
6.545799e+00	0.000000e+00
6.556222e+00	0.000000e+00
6.566646e+00	0.000000e+00
6.577069e+00	0.000000e+00
6.587492e+00	0.000000e+00
6.597915e+00	0.000000e+00
6.608339e+00	1.303178e-11
6.618762e+00	1.823313e-08
6.629185e+00	4.766145e-06
6.639608e+00	2.327669e-04
6.650032e+00	2.123849e-03
6.660455e+00	3.622368e-03
6.670878e+00	1.630035e-03
6.681301e+00	2.336028e-02
6.691725e+00	2.125222e-01
6.702148e+00	3.622873e-01
6.712571e+00	1.153856e-01
6.722994e+00	6.865912e-03
6.733418e+00	7.632962e-05
6.743841e+00	1.585390e-07
6.754264e+00	6.152154e-11
6.764687e+00	0.000000e+00
6.775111e+00	2.342801e-13
6.785534e+00	8.184367e-10
6.795957e+00	5.341742e-07
6.806380e+00	6.513716e-05
6.816804e+00	1.483963e-03
6.827227e+00	6.316383e-03
6.837650e+00	5.049725e-03
6.848073e+00	3.553336e-03
6.858497e+00	5.492614e-02
6.868920e+00	2.006438e-01
6.879343e+00	1.369885e-01
6.889766e+00	1.747393e-02
6.900190e+00	4.164332e-04
6.910613e+00	1.854164e-06
6.921036e+00	1.542408e-09
6.931459e+00	0.000000e+00
6.941883e+00	0.000000e+00
6.952306e+00	0.000000e+00
6.962729e+00	0.000000e+00
6.973152e+00	0.000000e+00
6.983575e+00	0.000000e+00
6.993999e+00	0.000000e+00
7.004422e+00	0.000000e+00
7.014845e+00	0.000000e+00
7.025268e+00	0.000000e+00
7.035692e+00	0.000000e+00
7.046115e+00	0.000000e+00
7.056538e+00	9.631132e-41
7.066961e+00	9.932786e-38
7.077385e+00	1.913872e-35
7.087808e+00	6.889743e-34
7.098231e+00	4.633843e-33
7.108654e+00	5.822743e-33
7.119078e+00	1.366980e-33
7.129501e+00	5.995769e-35
7.139924e+00	4.913327e-37
7.150347e+00	7.522370e-40
7.160771e+00	2.880054e-12
7.171194e+00	5.466663e-09
7.181617e+00	1.938618e-06
7.192040e+00	1.284429e-04
7.202464e+00	1.589924e-03
7.212887e+00	3.677018e-03
7.223310e+00	1.609765e-03
7.233733e+00	2.017990e-03
7.244157e+00	3.173644e-02
7.254580e+00	9.956578e-02
7.265003e+00	5.836285e-02
7.275426e+00	6.391622e-03
7.285850e+00	1.307778e-04
7.296273e+00	4.999249e-07
7.306696e+00	3.570457e-10
7.317119e+00	0.000000e+00
7.327543e+00	0.000000e+00
7.337966e+00	0.000000e+00
7.348389e+00	0.000000e+00
7.358812e+00	0.000000e+00
7.369236e+00	5.588723e-40
7.379659e+00	5.763766e-37
7.390082e+00	1.110576e-34
7.400505e+00	3.997959e-33
7.410929e+00	2.688912e-32
7.421352e+00	1.311902e-10
7.431775e+00	1.352992e-07
7.442198e+00	2.606977e-05
7.452622e+00	9.384848e-04
7.463045e+00	6.311978e-03
7.473468e+00	7.931437e-03
7.483891e+00	1.862032e-03
7.494315e+00	8.360000e-05
7.504738e+00	2.358643e-04
7.515161e+00	5.358242e-03
7.525584e+00	2.280681e-02
7.536008e+00	1.813656e-02
7.546431e+00	2.694595e-03
7.556854e+00	7.479632e-05
7.567277e+00	3.878958e-07
7.577701e+00	3.758358e-10
7.588124e+00	0.000000e+00
7.598547e+00	0.000000e+00
7.608970e+00	0.000000e+00
7.619394e+00	0.000000e+00
7.629817e+00	0.000000e+00
7.640240e+00	0.000000e+00
7.650663e+00	0.000000e+00
7.661087e+00	0.000000e+00
7.671510e+00	0.000000e+00
7.681933e+00	0.000000e+00
7.692356e+00	0.000000e+00
7.702780e+00	0.000000e+00
7.713203e+00	0.000000e+00
7.723626e+00	0.000000e+00
7.734049e+00	8.887433e-11
7.744473e+00	1.964853e-07
7.754896e+00	8.115810e-05
7.765319e+00	6.262992e-03
7.775742e+00	9.029839e-02
7.786166e+00	2.432358e-01
7.796589e+00	1.225100e-01
7.807012e+00	1.413466e-02
7.817435e+00	1.327993e-02
7.827858e+00	1.269836e-02
7.838282e+00	3.193901e-03
7.848705e+00	4.206612e-04
7.859128e+00	2.142752e-05
7.869551e+00	2.341470e-07
7.879975e+00	4.853762e-10
7.890398e+00	1.883517e-13
7.900821e+00	0.000000e+00
7.911244e+00	0.000000e+00
7.921668e+00	1.341811e-10
7.932091e+00	1.383838e-07
7.942514e+00	2.666411e-05
7.952937e+00	9.598803e-04
7.963361e+00	6.455878e-03
7.973784e+00	8.112257e-03
7.984207e+00	1.904503e-03
7.994630e+00	9.494545e-05
8.005054e+00	1.026466e-03
8.015477e+00	1.722602e-02
8.025900e+00	5.404607e-02
8.036323e+00	3.172293e-02
8.046747e+00	6.757042e-03
8.057170e+00	4.747031e-02
8.067593e+00	1.276790e-01
8.078016e+00	6.425588e-02
8.088440e+00	6.041649e-03
8.098863e+00	1.061320e-04
8.109286e+00	3.483255e-07
8.119709e+00	2.527908e-10
8.130133e+00	7.441552e-08
8.140556e+00	2.638963e-05
8.150979e+00	1.748442e-03
8.161402e+00	2.164300e-02
8.171826e+00	5.005320e-02
8.182249e+00	2.162690e-02
8.192672e+00	1.745842e-03
8.203095e+00	2.633078e-05
8.213519e+00	7.425256e-08
8.223942e+00	1.287876e-07
8.234365e+00	5.317948e-05
8.244788e+00	4.103875e-03
8.255212e+00	5.916873e-02
8.265635e+00	1.593817e-01
8.276058e+00	8.021083e-02
8.286481e+00	7.541811e-03
8.296905e+00	1.324849e-04
8.307328e+00	4.348158e-07
8.317751e+00	2.666198e-10
8.328174e+00	0.000000e+00
8.338598e+00	0.000000e+00
8.349021e+00	0.000000e+00
8.359444e+00	2.308366e-41
8.369867e+00	3.229702e-38
8.380291e+00	8.442447e-36
8.390714e+00	2.683217e-13
8.401137e+00	6.909417e-10
8.411560e+00	3.324109e-07
8.421984e+00	2.987839e-05
8.432407e+00	5.017499e-04
8.442830e+00	1.574223e-03
8.453253e+00	9.250422e-04
8.463677e+00	5.403109e-04
8.474100e+00	1.598132e-02
8.484523e+00	1.134680e-01
8.494946e+00	1.829087e-01
8.505370e+00	9.361608e-02
8.515793e+00	1.601431e-02
8.526216e+00	1.061500e-03
8.536639e+00	2.753063e-03
8.547063e+00	3.452792e-03
8.557486e+00	8.105951e-04
8.567909e+00	3.555385e-05
8.578332e+00	2.913517e-07
8.588756e+00	4.460633e-10
8.599179e+00	1.275921e-13
8.609602e+00	0.000000e+00
8.620025e+00	0.000000e+00
8.630449e+00	1.529030e-10
8.640872e+00	1.576921e-07
8.651295e+00	3.038448e-05
8.661718e+00	1.093810e-03
8.672142e+00	7.356650e-03
8.682565e+00	9.244139e-03
8.692988e+00	2.170206e-03
8.703411e+00	9.518832e-05
8.713834e+00	7.800358e-07
8.724258e+00	1.407902e-09
8.734681e+00	1.891819e-07
8.745104e+00	3.129600e-05
8.755527e+00	9.672682e-04
8.765951e+00	5.585390e-03
8.776374e+00	6.026534e-03
8.786797e+00	1.244673e-03
8.797220e+00	4.330654e-04
8.807644e+00	2.364468e-03
8.818067e+00	3.813505e-03
8.828490e+00	2.141330e-03
8.838913e+00	8.664470e-03
8.849337e+00	1.464962e-02
8.859760e+00	4.665537e-03
8.870183e+00	2.776183e-04
8.880606e+00	3.086334e-06
8.891030e+00	6.410412e-09
8.901453e+00	2.487580e-12
8.911876e+00	1.050724e-33
8.922299e+00	2.149867e-35
8.932723e+00	1.275179e-12
8.943146e+00	3.283650e-09
8.953569e+00	1.579758e-06
8.963992e+00	1.419949e-04
8.974416e+00	2.384530e-03
8.984839e+00	7.481369e-03
8.995262e+00	4.386074e-03
9.005685e+00	6.134102e-04
9.016109e+00	4.802870e-03
9.026532e+00	3.223667e-02
9.036955e+00	4.050755e-02
9.047378e+00	9.509781e-03
9.057802e+00	4.171125e-04
9.068225e+00	3.418094e-06
9.078648e+00	5.233148e-09
9.089071e+00	1.496891e-12
9.099495e+00	0.000000e+00
9.109918e+00	0.000000e+00
9.120341e+00	0.000000e+00
9.130764e+00	0.000000e+00
9.141188e+00	0.000000e+00
9.151611e+00	6.566827e-11
9.162034e+00	1.246457e-07
9.172457e+00	4.420253e-05
9.182881e+00	2.928634e-03
9.193304e+00	3.625194e-02
9.203727e+00	8.383890e-02
9.214150e+00	3.622497e-02
9.224574e+00	2.924278e-03
9.234997e+00	4.410395e-05
9.245420e+00	1.242752e-07
9.255843e+00	6.542437e-11
9.266267e+00	0.000000e+00
9.276690e+00	0.000000e+00
9.287113e+00	0.000000e+00
9.297536e+00	0.000000e+00
9.307960e+00	2.291062e-11
9.318383e+00	3.733590e-08
9.328806e+00	1.136749e-05
9.339229e+00	6.466220e-04
9.349653e+00	6.872024e-03
9.360076e+00	1.364479e-02
9.370499e+00	5.061713e-03
9.380922e+00	3.508134e-04
9.391346e+00	4.542585e-06
9.401769e+00	1.339343e-08
9.412192e+00	9.328681e-07
9.422615e+00	9.178403e-05
9.433039e+00	2.369308e-03
9.443462e+00	1.408076e-02
9.453885e+00	1.717834e-02
9.464308e+00	7.619865e-03
9.474732e+00	1.660981e-02
9.485155e+00	1.817213e-02
9.495578e+00	5.319956e-03
9.506001e+00	3.691326e-04
9.516425e+00	5.323134e-06
9.526848e+00	1.012145e-05
9.537271e+00	7.806442e-04
9.547694e+00	1.135520e-02
9.558117e+00	3.324210e-02
9.568541e+00	2.989109e-02
9.578964e+00	1.500126e-02
9.589387e+00	2.373129e-03
9.599810e+00	7.599421e-05
9.610234e+00	4.585882e-07
9.620657e+00	5.174757e-10
9.631080e+00	2.575481e-13
9.641503e+00	7.724599e-10
9.651927e+00	4.328543e-07
9.662350e+00	4.531643e-05
9.672773e+00	8.863756e-04
9.683196e+00	3.239139e-03
9.693620e+00	2.216094e-03
9.704043e+00	6.367742e-04
9.714466e+00	5.120428e-03
9.724889e+00	1.377472e-02
9.735313e+00	6.932297e-03
9.745736e+00	6.561735e-04
9.756159e+00	3.007532e-04
9.766582e+00	3.581214e-03
9.777006e+00	8.287708e-03
9.787429e+00	3.690812e-03
9.797852e+00	6.994571e-04
9.808275e+00	2.846812e-04
9.818699e+00	3.576980e-05
9.829122e+00	8.521686e-07
9.839545e+00	3.794326e-09
9.849968e+00	2.927438e-10
9.860392e+00	1.890069e-07
9.870815e+00	2.304749e-05
9.881238e+00	5.250725e-04
9.891661e+00	2.235714e-03
9.902085e+00	1.839335e-03
9.912508e+00	1.159069e-03
9.922931e+00	2.418240e-03
9.933354e+00	1.220077e-03
9.943778e+00	5.598433e-04
9.954201e+00	5.519844e-03
9.964624e+00	1.276097e-02
9.975047e+00	5.513735e-03
9.985471e+00	4.450989e-04
9.995894e+00	6.712979e-06
1.000632e+01	1.891569e-08
1.001674e+01	9.958120e-12
1.002716e+01	1.745460e-11
1.003759e+01	3.313078e-08
1.004801e+01	1.174902e-05
1.005843e+01	7.784299e-04
1.006886e+01	9.635753e-03
1.007928e+01	2.228435e-02
1.008970e+01	9.628585e-03
1.010013e+01	7.772721e-04
1.011055e+01	1.172281e-05
1.012097e+01	3.303230e-08
1.013140e+01	1.738977e-11
1.014182e+01	4.485324e-12
1.015224e+01	3.971510e-09
1.016267e+01	6.570002e-07
1.017309e+01	2.030596e-05
1.018351e+01	1.172546e-04
1.019394e+01	1.264983e-04
1.020436e+01	2.564915e-05
1.021478e+01	3.513747e-05
1.022521e+01	1.433053e-03
1.023563e+01	1.122614e-02
1.024605e+01	1.643364e-02
1.025648e+01	4.740781e-03
1.026690e+01	3.805133e-03
1.027732e+01	9.633878e-03
1.028774e+01	4.877681e-03
1.029817e+01	1.733782e-03
1.030859e+01	1.001975e-02
1.031901e+01	1.465307e-02
1.032944e+01	4.006770e-03
1.033986e+01	2.049650e-04
1.035028e+01	6.235349e-05
1.036071e+01	2.532548e-03
1.037113e+01	1.983934e-02
1.038155e+01	2.903659e-02
1.039198e+01	7.939846e-03
1.040240e+01	4.056269e-04
1.041282e+01	3.871592e-06
1.042325e+01	7.166073e-09
1.043367e+01	1.710532e-07
1.044409e+01	2.085793e-05
1.045452e+01	4.751878e-04
1.046494e+01	2.022589e-03
1.047536e+01	1.608414e-03
1.048579e+01	2.389662e-04
1.049621e+01	6.633203e-06
1.050663e+01	3.439998e-08
1.051706e+01	3.333045e-11
1.052748e+01	0.000000e+00
1.053790e+01	0.000000e+00
1.054833e+01	1.083241e-11
1.055875e+01	2.661996e-08
1.056917e+01	1.225733e-05
1.057960e+01	1.154668e-03
1.059002e+01	2.310012e-02
1.060044e+01	9.948292e-02
1.061087e+01	9.026178e-02
1.062129e+01	1.658867e-02
1.063171e+01	5.965026e-04
1.064214e+01	4.104231e-06
1.065256e+01	5.338123e-09
1.066298e+01	3.946523e-10
1.067340e+01	3.492153e-07
1.068383e+01	5.815105e-05
1.069425e+01	1.826677e-03
1.070467e+01	1.097179e-02
1.071510e+01	1.297862e-02
1.072552e+01	3.229256e-03
1.073594e+01	1.569779e-03
1.074637e+01	9.388643e-03
1.075679e+01	1.179475e-02
1.076721e+01	2.769001e-03
1.077764e+01	1.214523e-04
1.078806e+01	9.976470e-07
1.079848e+01	9.873813e-07
1.080891e+01	7.607889e-05
1.081933e+01	1.096888e-03
1.082975e+01	2.954667e-03
1.084018e+01	1.486973e-03
1.085060e+01	1.398124e-04
1.086102e+01	2.456046e-06
1.087145e+01	8.060749e-09
1.088187e+01	4.942680e-12
1.089229e+01	0.000000e+00
1.090272e+01	0.000000e+00
1.091314e+01	4.151785e-11
1.092356e+01	4.987244e-08
1.093399e+01	1.119269e-05
1.094441e+01	4.693065e-04
1.095483e+01	3.676434e-03
1.096526e+01	5.380822e-03
1.097568e+01	1.481259e-03
1.098610e+01	5.037736e-04
1.099653e+01	3.745069e-03
1.100695e+01	7.722597e-03
1.101737e+01	5.081593e-03
1.102780e+01	7.765080e-03
1.103822e+01	2.116035e-02
1.104864e+01	1.681619e-02
1.105907e+01	3.545811e-03
1.106949e+01	3.531744e-03
1.107991e+01	7.857241e-03
1.109033e+01	3.394477e-03
1.110076e+01	2.740207e-04
1.111118e+01	4.132778e-06
1.112160e+01	1.164526e-08
1.113203e+01	6.130616e-12
1.114245e+01	0.000000e+00
1.115287e+01	0.000000e+00
1.116330e+01	2.764878e-41
1.117372e+01	4.505736e-38
1.118414e+01	1.371840e-35
1.119457e+01	3.121681e-12
1.120499e+01	7.122696e-09
1.121541e+01	3.116797e-06
1.122584e+01	2.798628e-04
1.123626e+01	5.692073e-03
1.124668e+01	2.840804e-02
1.125711e+01	3.365170e-02
1.126753e+01	8.550783e-03
1.127795e+01	4.330061e-04
1.128838e+01	4.235032e-06
1.129880e+01	8.338283e-09
1.130922e+01	3.545342e-07
1.131965e+01	5.864954e-05
1.133007e+01	1.812686e-03
1.134049e+01	1.046716e-02
1.135092e+01	1.129241e-02
1.136134e+01	2.302738e-03
1.137176e+01	1.602590e-03
1.138219e+01	1.612135e-02
1.139261e+01	3.200865e-02
1.140303e+01	1.187402e-02
1.141346e+01	8.234713e-04
1.142388e+01	7.351697e-05
1.143430e+01	1.432853e-03
1.144473e+01	6.129129e-03
1.145515e+01	5.112551e-03
1.146557e+01	1.108665e-03
1.147599e+01	1.262276e-04
1.148642e+01	5.531098e-06
1.149684e+01	5.190370e-08
1.150726e+01	9.237790e-11
1.151769e+01	3.077707e-14
1.152811e+01	0.000000e+00
1.153853e+01	0.000000e+00
1.154896e+01	0.000000e+00
1.155938e+01	0.000000e+00
1.156980e+01	0.000000e+00
1.158023e+01	0.000000e+00
1.159065e+01	0.000000e+00
1.160107e+01	0.000000e+00
1.161150e+01	0.000000e+00
1.162192e+01	0.000000e+00
1.163234e+01	0.000000e+00
1.164277e+01	0.000000e+00
1.165319e+01	0.000000e+00
1.166361e+01	0.000000e+00
1.167404e+01	0.000000e+00
1.168446e+01	0.000000e+00
1.169488e+01	0.000000e+00
1.170531e+01	7.768318e-11
1.171573e+01	1.086888e-07
1.172615e+01	2.841127e-05
1.173658e+01	1.387537e-03
1.174700e+01	1.266038e-02
1.175742e+01	2.158227e-02
1.176785e+01	6.873781e-03
1.177827e+01	4.090179e-04
1.178869e+01	4.547128e-06
1.179912e+01	9.444525e-09
1.180954e+01	1.404242e-11
1.181996e+01	1.691141e-08
1.183039e+01	5.148939e-06
1.184081e+01	2.928895e-04
1.185123e+01	3.112705e-03
1.186166e+01	6.180452e-03
1.187208e+01	2.292719e-03
1.188250e+01	1.590423e-04
1.189292e+01	2.909289e-05
1.190335e+01	9.732482e-04
1.191377e+01	6.545753e-03
1.192419e+01	8.225198e-03
1.193462e+01	1.931844e-03
1.194504e+01	1.041411e-04
1.195546e+01	9.638600e-05
1.196589e+01	7.073711e-04
1.197631e+01	5.865058e-03
1.198673e+01	9.981863e-03
1.199716e+01	3.179059e-03
1.200758e+01	1.892228e-04
1.201800e+01	1.289182e-05
1.202843e+01	3.883907e-04
1.203885e+01	2.612210e-03
1.204927e+01	3.290375e-03
1.205970e+01	1.105958e-03
1.207012e+01	2.660995e-03
1.208054e+01	3.846725e-03
1.209097e+01	1.217809e-03
1.210139e+01	4.297444e-03
1.211181e+01	2.567203e-02
1.212224e+01	4.429248e-02
1.213266e+01	2.115419e-02
1.214308e+01	1.187282e-02
1.215351e+01	3.072638e-02
1.216393e+01	1.886651e-02
1.217435e+01	6.429471e-03
1.218478e+01	4.173022e-03
1.219520e+01	7.153268e-04
1.220562e+01	2.312254e-05
1.221605e+01	2.357421e-07
1.222647e+01	8.635684e-06
1.223689e+01	1.450170e-04
1.224732e+01	4.549852e-04
1.225774e+01	2.667004e-04
1.226816e+01	2.920776e-05
1.227858e+01	5.976144e-07
1.228901e+01	2.284504e-09
1.229943e+01	2.430386e-11
1.230985e+01	2.007506e-08
1.232028e+01	3.321025e-06
1.233070e+01	1.026997e-04
1.234112e+01	6.077904e-04
1.235155e+01	1.376654e-03
1.236197e+01	6.855674e-03
1.237239e+01	1.147229e-02
1.238282e+01	3.693385e-03
1.239324e+01	1.698002e-03
1.240366e+01	9.964353e-03
1.241409e+01	1.274937e-02
1.242451e+01	6.697747e-03
1.243493e+01	1.348017e-02
1.244536e+01	1.215702e-02
1.245578e+01	1.474853e-02
1.246620e+01	1.614508e-02
1.247663e+01	4.425894e-03
1.248705e+01	2.654500e-04
1.249747e+01	2.194194e-04
1.250790e+01	5.197417e-03
1.251832e+01	2.459756e-02
1.252874e+01	2.378030e-02
1.253917e+01	4.877037e-03
1.254959e+01	2.153527e-04
1.256001e+01	3.691766e-06
1.257044e+01	1.026114e-04
1.258086e+01	1.790256e-03
1.259128e+01	8.316361e-03
1.260171e+01	8.419263e-03
1.261213e+01	1.668743e-03
1.262255e+01	6.257108e-05
1.263298e+01	4.397422e-07
1.264340e+01	5.904753e-10
1.265382e+01	9.588150e-09
1.266425e+01	1.361871e-06
1.267467e+01	3.618278e-05
1.268509e+01	1.834206e-04
1.269551e+01	2.377398e-04
1.270594e+01	2.581659e-04
1.271636e+01	4.560006e-04
1.272678e+01	4.671802e-03
1.273721e+01	1.254568e-02
1.274763e+01	6.314329e-03
1.275805e+01	6.124811e-04
1.276848e+01	1.039705e-04
1.277890e+01	1.012951e-04
1.278932e+01	3.505657e-04
1.279975e+01	1.430032e-03
1.281017e+01	1.269261e-03
1.282059e+01	3.085430e-03
1.283102e+01	1.197595e-02
1.284144e+01	9.267187e-03
1.285186e+01	2.182940e-03
1.286229e+01	2.718033e-03
1.287271e+01	1.925978e-03
1.288313e+01	3.771395e-03
1.289356e+01	1.219907e-02
1.290398e+01	1.521779e-02
1.291440e+01	4.746336e-03
1.292483e+01	3.011097e-04
1.293525e+01	3.691450e-06
1.294567e+01	8.619562e-09
1.295610e+01	3.809648e-12
1.296652e+01	6.756238e-12
1.297694e+01	3.785914e-09
1.298737e+01	3.963553e-07
1.299779e+01	7.752590e-06
1.300821e+01	2.833221e-05
1.301864e+01	2.033704e-05
1.302906e+01	1.237258e-04
1.303948e+01	2.762701e-03
1.304991e+01	1.177478e-02
1.306033e+01	9.772235e-03
1.307075e+01	3.424045e-03
1.308117e+01	1.919694e-03
1.309160e+01	1.679161e-03
1.310202e+01	9.761543e-03
1.311244e+01	1.445865e-02
1.312287e+01	4.283267e-03
1.313329e+01	2.459427e-04
1.314371e+01	2.687884e-06
1.315414e+01	5.537951e-09
1.316456e+01	2.133795e-12
1.317498e+01	0.000000e+00
1.318541e+01	0.000000e+00
1.319583e+01	4.894472e-13
1.320625e+01	1.991533e-09
1.321668e+01	1.513970e-06
1.322710e+01	2.150281e-04
1.323752e+01	5.705862e-03
1.324795e+01	2.828756e-02
1.325837e+01	2.620181e-02
1.326879e+01	4.573302e-03
1.327922e+01	5.045413e-04
1.328964e+01	6.117932e-04
1.330006e+01	2.347644e-04
1.331049e+01	4.460249e-04
1.332091e+01	1.140942e-03
1.333133e+01	3.379441e-03
1.334176e+01	6.104005e-03
1.335218e+01	2.256512e-03
1.336260e+01	1.563780e-04
1.337303e+01	2.742348e-06
1.338345e+01	2.221309e-05
1.339387e+01	1.379126e-04
1.340430e+01	6.990672e-04
1.341472e+01	5.989071e-03
1.342514e+01	1.183740e-02
1.343557e+01	4.390856e-03
1.344599e+01	3.043906e-04
1.345641e+01	2.616865e-05
1.346684e+01	1.264429e-03
1.347726e+01	1.344127e-02
1.348768e+01	2.706149e-02
1.349810e+01	1.733605e-02
1.350853e+01	2.786863e-02
1.351895e+01	1.863035e-02
1.352937e+01	4.037844e-03
1.353980e+01	8.338348e-03
1.355022e+01	7.671288e-03
1.356064e+01	1.327470e-03
1.357107e+01	4.291838e-05
1.358149e+01	2.592449e-07
1.359191e+01	2.925669e-10
1.360234e+01	4.653612e-36
1.361276e+01	2.272711e-34
1.362318e+01	2.073702e-33
1.363361e+01	1.759509e-12
1.364403e+01	4.530824e-09
1.365445e+01	2.179772e-06
1.366488e+01	1.959264e-04
1.367530e+01	3.290206e-03
1.368572e+01	1.032289e-02
1.369615e+01	6.051010e-03
1.370657e+01	6.626779e-04
1.371699e+01	1.355893e-05
1.372742e+01	5.601606e-08
1.373784e+01	1.483888e-06
1.374826e+01	9.831243e-05
1.375869e+01	1.216955e-03
1.376911e+01	2.814420e-03
1.377953e+01	1.216050e-03
1.378996e+01	9.816713e-05
1.380038e+01	2.302975e-06
1.381080e+01	1.360579e-04
1.382123e+01	4.205067e-03
1.383165e+01	2.429650e-02
1.384207e+01	2.719243e-02
1.385250e+01	1.761880e-02
1.386292e+01	2.879260e-02
1.387334e+01	1.479166e-02
1.388377e+01	2.027343e-02
1.389419e+01	2.827532e-02
1.390461e+01	9.353004e-03
1.391503e+01	1.166761e-02
1.392546e+01	2.034486e-02
1.393588e+01	3.392219e-02
1.394630e+01	2.857081e-02
1.395673e+01	5.156332e-03
1.396715e+01	1.919715e-04
1.397757e+01	7.065087e-04
1.398800e+01	8.730338e-03
1.399842e+01	2.019771e-02
1.400884e+01	9.034773e-03
1.401927e+01	3.187685e-03
1.402969e+01	3.855930e-03
1.404011e+01	1.643108e-03
1.405054e+01	4.042032e-03
1.406096e+01	6.746006e-03
1.407138e+01	2.148093e-03
1.408181e+01	1.323131e-04
1.409223e+01	4.053351e-04
1.410265e+01	6.782962e-03
1.411308e+01	2.128127e-02
1.412350e+01	1.247452e-02
1.413392e+01	1.366150e-03
1.414435e+01	2.795254e-05
1.415477e+01	1.068543e-07
1.416519e+01	7.631524e-11
1.417562e+01	0.000000e+00
1.418604e+01	4.290213e-12
1.419646e+01	7.008287e-09
1.420689e+01	2.160578e-06
1.421731e+01	1.324043e-04
1.422773e+01	2.036766e-03
1.423816e+01	1.183795e-02
1.424858e+01	2.241622e-02
1.425900e+01	9.355397e-03
1.426943e+01	1.012036e-03
1.427985e+01	2.162327e-03
1.429027e+01	5.774406e-03
1.430069e+01	3.306128e-03
1.431112e+01	3.608876e-04
1.432154e+01	8.284116e-06
1.433196e+01	6.052358e-05
1.434239e+01	7.799387e-04
1.435281e+01	2.087511e-03
1.436323e+01	1.385710e-03
1.437366e+01	2.660691e-04
1.438408e+01	3.997889e-05
1.439450e+01	9.649283e-04
1.440493e+01	6.488908e-03
1.441535e+01	8.155205e-03
1.442577e+01	1.953096e-03
1.443620e+01	3.961064e-04
1.444662e+01	9.069972e-04
1.445704e+01	9.569754e-04
1.446747e+01	2.673107e-04
1.447789e+01	5.930772e-05
1.448831e+01	6.333674e-04
1.449874e+01	1.705660e-03
1.450916e+01	8.595353e-04
1.451958e+01	1.605096e-04
1.453001e+01	1.376195e-03
1.454043e+01	4.859008e-03
1.455085e+01	4.436311e-03
1.456128e+01	6.623399e-03
1.457170e+01	1.774680e-02
1.458212e+01	1.088420e-02
1.459255e+01	5.251546e-03
1.460297e+01	6.120808e-03
1.461339e+01	3.070112e-03
1.462382e+01	5.282721e-03
1.463424e+01	3.550091e-03
1.464466e+01	4.527431e-04
1.465509e+01	1.152144e-05
1.466551e+01	3.586974e-05
1.467593e+01	3.395659e-04
1.468636e+01	9.720019e-04
1.469678e+01	2.600959e-03
1.470720e+01	3.288674e-03
1.471762e+01	4.662347e-03
1.472805e+01	5.486852e-03
1.473847e+01	2.181870e-03
1.474889e+01	2.997962e-04
1.475932e+01	1.030491e-05
1.476974e+01	7.120656e-08
1.478016e+01	9.328025e-11
1.479059e+01	3.159666e-11
1.480101e+01	3.256283e-08
1.481143e+01	6.274707e-06
1.482186e+01	2.261228e-04
1.483228e+01	1.546935e-03
1.484270e+01	2.558089e-03
1.485313e+01	4.875235e-03
1.486355e+01	1.055057e-02
1.487397e+01	6.469735e-03
1.488440e+01	8.082117e-04
1.489482e+01	4.625208e-05
1.490524e+01	1.020484e-03
1.491567e+01	7.222329e-03
1.492609e+01	9.601405e-03
1.493651e+01	2.398328e-03
1.494694e+01	1.547630e-04
1.495736e+01	8.271556e-04
1.496778e+01	3.019093e-03
1.497821e+01	2.061269e-03
1.498863e+01	2.629306e-04
1.499905e+01	6.266080e-06
1.500000e+01	4.105235e-06