File: cif_pxrd_calculator/txt/itwotheta/li0.5tio2_Imma_36449.txt
# 2theta [deg]	I_scaled [a.u.]	Wavelength = 0.20721 Å
0.000000e+00	0.000000e+00
1.042325e-02	0.000000e+00
2.084649e-02	0.000000e+00
3.126974e-02	0.000000e+00
4.169299e-02	0.000000e+00
5.211623e-02	0.000000e+00
6.253948e-02	0.000000e+00
7.296273e-02	0.000000e+00
8.338598e-02	0.000000e+00
9.380922e-02	0.000000e+00
1.042325e-01	0.000000e+00
1.146557e-01	0.000000e+00
1.250790e-01	0.000000e+00
1.355022e-01	0.000000e+00
1.459255e-01	0.000000e+00
1.563487e-01	0.000000e+00
1.667720e-01	0.000000e+00
1.771952e-01	0.000000e+00
1.876184e-01	0.000000e+00
1.980417e-01	0.000000e+00
2.084649e-01	0.000000e+00
2.188882e-01	0.000000e+00
2.293114e-01	0.000000e+00
2.397347e-01	0.000000e+00
2.501579e-01	0.000000e+00
2.605812e-01	0.000000e+00
2.710044e-01	0.000000e+00
2.814277e-01	0.000000e+00
2.918509e-01	0.000000e+00
3.022742e-01	0.000000e+00
3.126974e-01	0.000000e+00
3.231207e-01	0.000000e+00
3.335439e-01	0.000000e+00
3.439672e-01	0.000000e+00
3.543904e-01	0.000000e+00
3.648136e-01	0.000000e+00
3.752369e-01	0.000000e+00
3.856601e-01	0.000000e+00
3.960834e-01	0.000000e+00
4.065066e-01	0.000000e+00
4.169299e-01	0.000000e+00
4.273531e-01	0.000000e+00
4.377764e-01	0.000000e+00
4.481996e-01	0.000000e+00
4.586229e-01	0.000000e+00
4.690461e-01	0.000000e+00
4.794694e-01	0.000000e+00
4.898926e-01	0.000000e+00
5.003159e-01	0.000000e+00
5.107391e-01	0.000000e+00
5.211623e-01	0.000000e+00
5.315856e-01	0.000000e+00
5.420088e-01	0.000000e+00
5.524321e-01	0.000000e+00
5.628553e-01	0.000000e+00
5.732786e-01	0.000000e+00
5.837018e-01	0.000000e+00
5.941251e-01	0.000000e+00
6.045483e-01	0.000000e+00
6.149716e-01	0.000000e+00
6.253948e-01	0.000000e+00
6.358181e-01	0.000000e+00
6.462413e-01	0.000000e+00
6.566646e-01	0.000000e+00
6.670878e-01	0.000000e+00
6.775111e-01	0.000000e+00
6.879343e-01	0.000000e+00
6.983575e-01	0.000000e+00
7.087808e-01	0.000000e+00
7.192040e-01	0.000000e+00
7.296273e-01	0.000000e+00
7.400505e-01	0.000000e+00
7.504738e-01	0.000000e+00
7.608970e-01	0.000000e+00
7.713203e-01	0.000000e+00
7.817435e-01	0.000000e+00
7.921668e-01	0.000000e+00
8.025900e-01	0.000000e+00
8.130133e-01	0.000000e+00
8.234365e-01	0.000000e+00
8.338598e-01	0.000000e+00
8.442830e-01	0.000000e+00
8.547063e-01	0.000000e+00
8.651295e-01	0.000000e+00
8.755527e-01	0.000000e+00
8.859760e-01	0.000000e+00
8.963992e-01	0.000000e+00
9.068225e-01	0.000000e+00
9.172457e-01	0.000000e+00
9.276690e-01	0.000000e+00
9.380922e-01	0.000000e+00
9.485155e-01	0.000000e+00
9.589387e-01	0.000000e+00
9.693620e-01	0.000000e+00
9.797852e-01	0.000000e+00
9.902085e-01	0.000000e+00
1.000632e+00	0.000000e+00
1.011055e+00	0.000000e+00
1.021478e+00	0.000000e+00
1.031901e+00	0.000000e+00
1.042325e+00	0.000000e+00
1.052748e+00	0.000000e+00
1.063171e+00	0.000000e+00
1.073594e+00	0.000000e+00
1.084018e+00	0.000000e+00
1.094441e+00	0.000000e+00
1.104864e+00	0.000000e+00
1.115287e+00	0.000000e+00
1.125711e+00	0.000000e+00
1.136134e+00	0.000000e+00
1.146557e+00	0.000000e+00
1.156980e+00	0.000000e+00
1.167404e+00	0.000000e+00
1.177827e+00	0.000000e+00
1.188250e+00	0.000000e+00
1.198673e+00	0.000000e+00
1.209097e+00	0.000000e+00
1.219520e+00	0.000000e+00
1.229943e+00	0.000000e+00
1.240366e+00	0.000000e+00
1.250790e+00	0.000000e+00
1.261213e+00	1.894392e-40
1.271636e+00	2.650498e-37
1.282059e+00	6.928407e-35
1.292483e+00	3.383665e-33
1.302906e+00	3.087377e-32
1.313329e+00	5.263080e-32
1.323752e+00	1.676249e-32
1.334176e+00	9.974362e-34
1.344599e+00	1.108868e-35
1.355022e+00	2.303154e-38
1.365445e+00	8.937459e-42
1.375869e+00	0.000000e+00
1.386292e+00	0.000000e+00
1.396715e+00	0.000000e+00
1.407138e+00	0.000000e+00
1.417562e+00	0.000000e+00
1.427985e+00	0.000000e+00
1.438408e+00	0.000000e+00
1.448831e+00	0.000000e+00
1.459255e+00	0.000000e+00
1.469678e+00	0.000000e+00
1.480101e+00	0.000000e+00
1.490524e+00	0.000000e+00
1.500948e+00	0.000000e+00
1.511371e+00	0.000000e+00
1.521794e+00	0.000000e+00
1.532217e+00	0.000000e+00
1.542641e+00	0.000000e+00
1.553064e+00	0.000000e+00
1.563487e+00	0.000000e+00
1.573910e+00	0.000000e+00
1.584334e+00	0.000000e+00
1.594757e+00	0.000000e+00
1.605180e+00	0.000000e+00
1.615603e+00	0.000000e+00
1.626027e+00	0.000000e+00
1.636450e+00	0.000000e+00
1.646873e+00	0.000000e+00
1.657296e+00	0.000000e+00
1.667720e+00	0.000000e+00
1.678143e+00	0.000000e+00
1.688566e+00	0.000000e+00
1.698989e+00	0.000000e+00
1.709413e+00	0.000000e+00
1.719836e+00	0.000000e+00
1.730259e+00	0.000000e+00
1.740682e+00	0.000000e+00
1.751105e+00	0.000000e+00
1.761529e+00	0.000000e+00
1.771952e+00	0.000000e+00
1.782375e+00	0.000000e+00
1.792798e+00	0.000000e+00
1.803222e+00	0.000000e+00
1.813645e+00	0.000000e+00
1.824068e+00	0.000000e+00
1.834491e+00	0.000000e+00
1.844915e+00	0.000000e+00
1.855338e+00	0.000000e+00
1.865761e+00	0.000000e+00
1.876184e+00	0.000000e+00
1.886608e+00	0.000000e+00
1.897031e+00	0.000000e+00
1.907454e+00	0.000000e+00
1.917877e+00	0.000000e+00
1.928301e+00	0.000000e+00
1.938724e+00	0.000000e+00
1.949147e+00	0.000000e+00
1.959570e+00	0.000000e+00
1.969994e+00	0.000000e+00
1.980417e+00	0.000000e+00
1.990840e+00	0.000000e+00
2.001263e+00	0.000000e+00
2.011687e+00	0.000000e+00
2.022110e+00	0.000000e+00
2.032533e+00	0.000000e+00
2.042956e+00	0.000000e+00
2.053380e+00	0.000000e+00
2.063803e+00	0.000000e+00
2.074226e+00	0.000000e+00
2.084649e+00	0.000000e+00
2.095073e+00	0.000000e+00
2.105496e+00	0.000000e+00
2.115919e+00	0.000000e+00
2.126342e+00	0.000000e+00
2.136766e+00	0.000000e+00
2.147189e+00	0.000000e+00
2.157612e+00	0.000000e+00
2.168035e+00	0.000000e+00
2.178459e+00	0.000000e+00
2.188882e+00	0.000000e+00
2.199305e+00	0.000000e+00
2.209728e+00	0.000000e+00
2.220152e+00	0.000000e+00
2.230575e+00	0.000000e+00
2.240998e+00	0.000000e+00
2.251421e+00	0.000000e+00
2.261845e+00	0.000000e+00
2.272268e+00	0.000000e+00
2.282691e+00	0.000000e+00
2.293114e+00	0.000000e+00
2.303538e+00	0.000000e+00
2.313961e+00	0.000000e+00
2.324384e+00	0.000000e+00
2.334807e+00	0.000000e+00
2.345231e+00	0.000000e+00
2.355654e+00	0.000000e+00
2.366077e+00	0.000000e+00
2.376500e+00	0.000000e+00
2.386924e+00	0.000000e+00
2.397347e+00	0.000000e+00
2.407770e+00	0.000000e+00
2.418193e+00	0.000000e+00
2.428617e+00	0.000000e+00
2.439040e+00	0.000000e+00
2.449463e+00	0.000000e+00
2.459886e+00	0.000000e+00
2.470310e+00	0.000000e+00
2.480733e+00	0.000000e+00
2.491156e+00	0.000000e+00
2.501579e+00	0.000000e+00
2.512003e+00	0.000000e+00
2.522426e+00	0.000000e+00
2.532849e+00	0.000000e+00
2.543272e+00	0.000000e+00
2.553696e+00	0.000000e+00
2.564119e+00	0.000000e+00
2.574542e+00	2.421112e-10
2.584965e+00	2.496943e-07
2.595389e+00	4.811167e-05
2.605812e+00	1.731971e-03
2.616235e+00	1.164873e-02
2.626658e+00	1.463744e-02
2.637081e+00	3.436368e-03
2.647505e+00	1.507240e-04
2.657928e+00	1.235131e-06
2.668351e+00	1.891003e-09
2.678774e+00	5.409030e-13
2.689198e+00	0.000000e+00
2.699621e+00	0.000000e+00
2.710044e+00	0.000000e+00
2.720467e+00	0.000000e+00
2.730891e+00	0.000000e+00
2.741314e+00	0.000000e+00
2.751737e+00	0.000000e+00
2.762160e+00	0.000000e+00
2.772584e+00	0.000000e+00
2.783007e+00	0.000000e+00
2.793430e+00	0.000000e+00
2.803853e+00	0.000000e+00
2.814277e+00	0.000000e+00
2.824700e+00	0.000000e+00
2.835123e+00	0.000000e+00
2.845546e+00	0.000000e+00
2.855970e+00	4.485708e-43
2.866393e+00	1.567042e-39
2.876816e+00	1.022771e-36
2.887239e+00	1.247166e-34
2.897663e+00	2.841309e-33
2.908086e+00	1.209374e-32
2.918509e+00	9.617255e-33
2.928932e+00	1.428860e-33
2.939356e+00	3.966217e-35
2.949779e+00	2.056891e-37
2.960202e+00	1.992941e-40
2.970625e+00	0.000000e+00
2.981049e+00	0.000000e+00
2.991472e+00	0.000000e+00
3.001895e+00	0.000000e+00
3.012318e+00	0.000000e+00
3.022742e+00	0.000000e+00
3.033165e+00	0.000000e+00
3.043588e+00	0.000000e+00
3.054011e+00	0.000000e+00
3.064435e+00	4.120305e-42
3.074858e+00	9.109258e-39
3.085281e+00	3.762572e-36
3.095704e+00	2.903587e-34
3.106128e+00	4.186325e-33
3.116551e+00	1.127663e-32
3.126974e+00	5.675103e-33
3.137397e+00	1.202802e-11
3.147821e+00	4.894134e-08
3.158244e+00	3.720537e-05
3.168667e+00	5.284252e-03
3.179090e+00	1.402199e-01
3.189514e+00	6.951586e-01
3.199937e+00	6.438820e-01
3.210360e+00	1.114235e-01
3.220783e+00	3.602430e-03
3.231207e+00	2.176018e-05
3.241630e+00	2.455712e-08
3.252053e+00	0.000000e+00
3.262476e+00	0.000000e+00
3.272900e+00	0.000000e+00
3.283323e+00	0.000000e+00
3.293746e+00	0.000000e+00
3.304169e+00	0.000000e+00
3.314593e+00	0.000000e+00
3.325016e+00	1.455192e-11
3.335439e+00	5.921092e-08
3.345862e+00	4.501234e-05
3.356286e+00	6.393071e-03
3.366709e+00	1.696429e-01
3.377132e+00	8.410268e-01
3.387555e+00	7.789906e-01
3.397979e+00	1.348040e-01
3.408402e+00	4.358344e-03
3.418825e+00	2.632621e-05
3.429248e+00	2.971005e-08
3.439672e+00	0.000000e+00
3.450095e+00	0.000000e+00
3.460518e+00	0.000000e+00
3.470941e+00	0.000000e+00
3.481364e+00	0.000000e+00
3.491788e+00	0.000000e+00
3.502211e+00	0.000000e+00
3.512634e+00	0.000000e+00
3.523057e+00	0.000000e+00
3.533481e+00	0.000000e+00
3.543904e+00	0.000000e+00
3.554327e+00	0.000000e+00
3.564750e+00	0.000000e+00
3.575174e+00	0.000000e+00
3.585597e+00	0.000000e+00
3.596020e+00	0.000000e+00
3.606443e+00	0.000000e+00
3.616867e+00	0.000000e+00
3.627290e+00	0.000000e+00
3.637713e+00	0.000000e+00
3.648136e+00	0.000000e+00
3.658560e+00	0.000000e+00
3.668983e+00	0.000000e+00
3.679406e+00	0.000000e+00
3.689829e+00	0.000000e+00
3.700253e+00	0.000000e+00
3.710676e+00	0.000000e+00
3.721099e+00	0.000000e+00
3.731522e+00	0.000000e+00
3.741946e+00	0.000000e+00
3.752369e+00	0.000000e+00
3.762792e+00	0.000000e+00
3.773215e+00	0.000000e+00
3.783639e+00	0.000000e+00
3.794062e+00	0.000000e+00
3.804485e+00	0.000000e+00
3.814908e+00	0.000000e+00
3.825332e+00	0.000000e+00
3.835755e+00	0.000000e+00
3.846178e+00	0.000000e+00
3.856601e+00	0.000000e+00
3.867025e+00	4.846103e-41
3.877448e+00	9.199093e-38
3.887871e+00	3.264647e-35
3.898294e+00	2.181350e-33
3.908718e+00	2.960953e-32
3.919141e+00	1.376765e-31
3.929564e+00	4.025516e-31
3.939987e+00	3.502555e-31
3.950411e+00	6.027067e-32
3.960834e+00	1.947649e-33
3.971257e+00	1.176410e-35
3.981680e+00	1.327615e-38
3.992104e+00	0.000000e+00
4.002527e+00	0.000000e+00
4.012950e+00	0.000000e+00
4.023373e+00	1.900444e-40
4.033797e+00	3.097026e-37
4.044220e+00	9.429369e-35
4.054643e+00	5.363752e-33
4.065066e+00	5.700367e-32
4.075490e+00	1.131840e-31
4.085913e+00	4.198708e-32
4.096336e+00	2.910009e-33
4.106759e+00	3.768089e-35
4.117183e+00	9.115827e-38
4.127606e+00	4.120208e-41
4.138029e+00	0.000000e+00
4.148452e+00	0.000000e+00
4.158876e+00	0.000000e+00
4.169299e+00	0.000000e+00
4.179722e+00	0.000000e+00
4.190145e+00	0.000000e+00
4.200569e+00	0.000000e+00
4.210992e+00	3.947425e-75
4.221415e+00	1.378997e-71
4.231838e+00	9.000389e-69
4.242262e+00	1.097507e-66
4.252685e+00	2.500353e-65
4.263108e+00	1.064250e-64
4.273531e+00	8.463188e-65
4.283955e+00	1.257397e-65
4.294378e+00	3.490272e-67
4.304801e+00	1.810065e-69
4.315224e+00	1.753789e-72
4.325648e+00	0.000000e+00
4.336071e+00	0.000000e+00
4.346494e+00	0.000000e+00
4.356917e+00	0.000000e+00
4.367340e+00	0.000000e+00
4.377764e+00	0.000000e+00
4.388187e+00	0.000000e+00
4.398610e+00	0.000000e+00
4.409033e+00	3.971175e-42
4.419457e+00	1.191068e-38
4.429880e+00	6.674250e-36
4.440303e+00	6.987413e-34
4.450726e+00	1.366717e-32
4.461150e+00	4.994463e-32
4.471573e+00	3.409944e-32
4.481996e+00	4.349645e-33
4.492419e+00	1.036594e-34
4.502843e+00	4.615423e-37
4.513266e+00	3.839393e-40
4.523689e+00	0.000000e+00
4.534112e+00	0.000000e+00
4.544536e+00	0.000000e+00
4.554959e+00	0.000000e+00
4.565382e+00	0.000000e+00
4.575805e+00	0.000000e+00
4.586229e+00	0.000000e+00
4.596652e+00	0.000000e+00
4.607075e+00	0.000000e+00
4.617498e+00	0.000000e+00
4.627922e+00	0.000000e+00
4.638345e+00	0.000000e+00
4.648768e+00	0.000000e+00
4.659191e+00	0.000000e+00
4.669615e+00	0.000000e+00
4.680038e+00	0.000000e+00
4.690461e+00	0.000000e+00
4.700884e+00	0.000000e+00
4.711308e+00	0.000000e+00
4.721731e+00	0.000000e+00
4.732154e+00	0.000000e+00
4.742577e+00	0.000000e+00
4.753001e+00	0.000000e+00
4.763424e+00	0.000000e+00
4.773847e+00	0.000000e+00
4.784270e+00	0.000000e+00
4.794694e+00	0.000000e+00
4.805117e+00	0.000000e+00
4.815540e+00	0.000000e+00
4.825963e+00	0.000000e+00
4.836387e+00	0.000000e+00
4.846810e+00	1.514786e-09
4.857233e+00	1.819605e-06
4.867656e+00	4.083673e-04
4.878080e+00	1.712273e-02
4.888503e+00	1.341353e-01
4.898926e+00	1.963186e-01
4.909349e+00	5.368192e-02
4.919773e+00	2.742475e-03
4.930196e+00	2.617614e-05
4.940619e+00	4.667846e-08
4.951042e+00	1.555162e-11
4.961466e+00	4.499657e-09
4.971889e+00	3.984472e-06
4.982312e+00	6.594258e-04
4.992735e+00	2.044404e-02
5.003159e+00	1.206981e-01
5.013582e+00	1.509427e-01
5.024005e+00	6.076345e-02
5.034428e+00	1.058433e-02
5.044852e+00	4.982955e-04
5.055275e+00	4.700313e-06
5.065698e+00	8.368112e-09
5.076121e+00	2.787232e-12
5.086545e+00	0.000000e+00
5.096968e+00	0.000000e+00
5.107391e+00	0.000000e+00
5.117814e+00	0.000000e+00
5.128238e+00	0.000000e+00
5.138661e+00	0.000000e+00
5.149084e+00	0.000000e+00
5.159507e+00	0.000000e+00
5.169931e+00	0.000000e+00
5.180354e+00	0.000000e+00
5.190777e+00	8.134921e-12
5.201200e+00	3.310053e-08
5.211623e+00	2.516313e-05
5.222047e+00	3.573902e-03
5.232470e+00	9.483502e-02
5.242893e+00	4.701571e-01
5.253316e+00	4.354772e-01
5.263740e+00	7.535914e-02
5.274163e+00	2.436434e-03
5.284586e+00	1.471708e-05
5.295009e+00	1.660874e-08
5.305433e+00	0.000000e+00
5.315856e+00	0.000000e+00
5.326279e+00	0.000000e+00
5.336702e+00	0.000000e+00
5.347126e+00	0.000000e+00
5.357549e+00	0.000000e+00
5.367972e+00	0.000000e+00
5.378395e+00	0.000000e+00
5.388819e+00	0.000000e+00
5.399242e+00	0.000000e+00
5.409665e+00	0.000000e+00
5.420088e+00	0.000000e+00
5.430512e+00	0.000000e+00
5.440935e+00	0.000000e+00
5.451358e+00	0.000000e+00
5.461781e+00	0.000000e+00
5.472205e+00	0.000000e+00
5.482628e+00	0.000000e+00
5.493051e+00	0.000000e+00
5.503474e+00	0.000000e+00
5.513898e+00	0.000000e+00
5.524321e+00	0.000000e+00
5.534744e+00	0.000000e+00
5.545167e+00	0.000000e+00
5.555591e+00	0.000000e+00
5.566014e+00	0.000000e+00
5.576437e+00	0.000000e+00
5.586860e+00	0.000000e+00
5.597284e+00	0.000000e+00
5.607707e+00	0.000000e+00
5.618130e+00	0.000000e+00
5.628553e+00	0.000000e+00
5.638977e+00	0.000000e+00
5.649400e+00	0.000000e+00
5.659823e+00	0.000000e+00
5.670246e+00	0.000000e+00
5.680670e+00	0.000000e+00
5.691093e+00	0.000000e+00
5.701516e+00	0.000000e+00
5.711939e+00	0.000000e+00
5.722363e+00	0.000000e+00
5.732786e+00	0.000000e+00
5.743209e+00	0.000000e+00
5.753632e+00	1.159445e-40
5.764056e+00	2.200756e-37
5.774479e+00	3.970816e-10
5.784902e+00	7.537052e-07
5.795325e+00	2.672830e-04
5.805749e+00	1.770881e-02
5.816172e+00	2.192075e-01
5.826595e+00	5.069555e-01
5.837018e+00	2.190445e-01
5.847442e+00	1.768247e-02
5.857865e+00	2.666869e-04
5.868288e+00	7.514648e-07
5.878711e+00	3.956068e-10
5.889135e+00	0.000000e+00
5.899558e+00	0.000000e+00
5.909981e+00	0.000000e+00
5.920404e+00	7.838155e-42
5.930828e+00	1.487769e-38
5.941251e+00	5.276007e-36
5.951674e+00	3.495617e-34
5.962097e+00	4.327476e-33
5.972521e+00	1.012448e-32
5.982944e+00	1.006138e-32
5.993367e+00	5.270072e-32
6.003790e+00	8.924967e-32
6.014214e+00	2.842364e-32
6.024637e+00	1.691321e-33
6.035060e+00	1.880273e-35
6.045483e+00	3.905386e-38
6.055907e+00	1.019401e-40
6.066330e+00	1.042488e-37
6.076753e+00	2.339617e-35
6.087176e+00	9.809951e-34
6.097599e+00	7.684879e-33
6.108023e+00	1.124748e-32
6.118446e+00	3.075544e-33
6.128869e+00	1.571218e-34
6.139292e+00	1.499683e-36
6.149716e+00	2.674302e-39
6.160139e+00	8.909833e-43
6.170562e+00	0.000000e+00
6.180985e+00	5.904233e-12
6.191409e+00	2.402399e-08
6.201832e+00	1.826312e-05
6.212255e+00	2.593898e-03
6.222678e+00	6.883019e-02
6.233102e+00	3.412347e-01
6.243525e+00	3.160644e-01
6.253948e+00	5.469481e-02
6.264371e+00	1.768336e-03
6.274795e+00	1.068149e-05
6.285218e+00	1.205443e-08
6.295641e+00	0.000000e+00
6.306064e+00	0.000000e+00
6.316488e+00	0.000000e+00
6.326911e+00	1.329762e-40
6.337334e+00	1.122000e-12
6.347757e+00	2.480543e-09
6.358181e+00	1.024586e-06
6.368604e+00	7.906760e-05
6.379027e+00	1.139979e-03
6.389450e+00	3.070740e-03
6.399874e+00	1.545388e-03
6.410297e+00	1.453048e-04
6.420720e+00	2.552530e-06
6.431143e+00	8.377410e-09
6.441567e+00	5.136850e-12
6.451990e+00	0.000000e+00
6.462413e+00	0.000000e+00
6.472836e+00	0.000000e+00
6.483260e+00	0.000000e+00
6.493683e+00	0.000000e+00
6.504106e+00	3.090270e-42
6.514529e+00	1.257413e-38
6.524953e+00	9.558897e-36
6.535376e+00	1.357643e-33
6.545799e+00	3.602565e-32
6.556222e+00	1.786019e-31
6.566646e+00	1.654278e-31
6.577069e+00	2.862804e-32
6.587492e+00	9.896278e-34
6.597915e+00	9.295172e-34
6.608339e+00	2.488770e-33
6.618762e+00	1.252501e-33
6.629185e+00	1.177662e-34
6.639608e+00	2.068767e-36
6.650032e+00	6.789699e-39
6.660455e+00	4.163299e-42
6.670878e+00	0.000000e+00
6.681301e+00	4.040135e-12
6.691725e+00	1.643908e-08
6.702148e+00	1.249704e-05
6.712571e+00	1.774946e-03
6.722994e+00	4.709901e-02
6.733418e+00	2.335188e-01
6.743841e+00	2.175863e-01
6.754264e+00	5.389339e-02
6.764687e+00	4.018683e-02
6.775111e+00	1.745879e-02
6.785534e+00	1.486655e-03
6.795957e+00	2.427731e-05
6.806380e+00	7.667063e-08
6.816804e+00	4.723636e-11
6.827227e+00	0.000000e+00
6.837650e+00	6.495042e-41
6.848073e+00	5.751005e-38
6.858497e+00	9.513792e-36
6.868920e+00	2.940436e-34
6.879343e+00	1.697923e-33
6.889766e+00	1.831776e-33
6.900190e+00	3.692112e-34
6.910613e+00	1.390355e-35
6.921036e+00	9.781928e-38
6.931459e+00	1.285794e-40
6.941883e+00	3.157669e-44
6.952306e+00	2.515046e-12
6.962729e+00	1.023358e-08
6.973152e+00	7.779601e-06
6.983575e+00	1.104931e-03
6.993999e+00	2.931982e-02
7.004422e+00	1.453569e-01
7.014845e+00	1.346350e-01
7.025268e+00	2.329853e-02
7.035692e+00	7.532641e-04
7.046115e+00	4.550029e-06
7.056538e+00	5.134867e-09
7.066961e+00	1.185886e-35
7.077385e+00	8.086151e-36
7.087808e+00	8.443450e-34
7.098231e+00	1.651513e-32
7.108654e+00	6.035209e-32
7.119078e+00	4.120508e-32
7.129501e+00	4.940410e-10
7.139924e+00	5.934563e-07
7.150347e+00	1.331872e-04
7.160771e+00	5.584505e-03
7.171194e+00	4.374767e-02
7.181617e+00	6.402849e-02
7.192040e+00	1.750813e-02
7.202464e+00	8.944466e-04
7.212887e+00	8.537449e-06
7.223310e+00	4.198991e-07
7.233733e+00	1.435081e-04
7.244157e+00	9.508114e-03
7.254580e+00	1.176957e-01
7.265003e+00	2.721917e-01
7.275426e+00	1.176081e-01
7.285850e+00	9.493972e-03
7.296273e+00	1.431880e-04
7.306696e+00	4.034723e-07
7.317119e+00	2.124070e-10
7.327543e+00	1.132249e-38
7.337966e+00	4.604441e-36
7.348389e+00	4.590837e-34
7.358812e+00	1.320455e-32
7.369236e+00	9.916950e-32
7.379659e+00	1.598461e-31
7.390082e+00	5.016628e-32
7.400505e+00	2.973885e-33
7.410929e+00	3.302964e-35
7.421352e+00	6.858695e-38
7.431775e+00	2.661319e-41
7.442198e+00	0.000000e+00
7.452622e+00	0.000000e+00
7.463045e+00	0.000000e+00
7.473468e+00	0.000000e+00
7.483891e+00	0.000000e+00
7.494315e+00	0.000000e+00
7.504738e+00	0.000000e+00
7.515161e+00	0.000000e+00
7.525584e+00	0.000000e+00
7.536008e+00	0.000000e+00
7.546431e+00	0.000000e+00
7.556854e+00	0.000000e+00
7.567277e+00	0.000000e+00
7.577701e+00	0.000000e+00
7.588124e+00	0.000000e+00
7.598547e+00	0.000000e+00
7.608970e+00	0.000000e+00
7.619394e+00	0.000000e+00
7.629817e+00	0.000000e+00
7.640240e+00	3.952828e-12
7.650663e+00	1.017873e-08
7.661087e+00	4.896969e-06
7.671510e+00	4.401588e-04
7.681933e+00	7.391618e-03
7.692356e+00	2.319091e-02
7.702780e+00	1.359390e-02
7.713203e+00	1.488740e-03
7.723626e+00	3.046082e-05
7.734049e+00	1.164428e-07
7.744473e+00	8.316327e-11
7.754896e+00	0.000000e+00
7.765319e+00	0.000000e+00
7.775742e+00	4.324728e-41
7.786166e+00	9.561202e-38
7.796589e+00	8.732637e-09
7.807012e+00	7.732273e-06
7.817435e+00	1.279137e-03
7.827858e+00	3.953440e-02
7.838282e+00	2.282875e-01
7.848705e+00	2.463356e-01
7.859128e+00	5.101566e-02
7.869551e+00	8.685649e-03
7.879975e+00	6.326671e-03
7.890398e+00	1.092653e-03
7.900821e+00	7.008906e-05
7.911244e+00	2.683099e-03
7.921668e+00	3.868123e-02
7.932091e+00	1.041949e-01
7.942514e+00	5.243739e-02
7.952937e+00	4.930417e-03
7.963361e+00	8.661127e-05
7.973784e+00	2.842584e-07
7.984207e+00	1.743012e-10
7.994630e+00	0.000000e+00
8.005054e+00	0.000000e+00
8.015477e+00	0.000000e+00
8.025900e+00	0.000000e+00
8.036323e+00	0.000000e+00
8.046747e+00	0.000000e+00
8.057170e+00	0.000000e+00
8.067593e+00	0.000000e+00
8.078016e+00	0.000000e+00
8.088440e+00	0.000000e+00
8.098863e+00	8.449251e-12
8.109286e+00	2.951670e-08
8.119709e+00	1.926485e-05
8.130133e+00	2.349155e-03
8.140556e+00	5.351872e-02
8.150979e+00	2.277970e-01
8.161402e+00	1.811500e-01
8.171826e+00	2.691392e-02
8.182249e+00	7.470741e-04
8.192672e+00	3.874348e-06
8.203095e+00	3.753891e-09
8.213519e+00	0.000000e+00
8.223942e+00	0.000000e+00
8.234365e+00	0.000000e+00
8.244788e+00	0.000000e+00
8.255212e+00	0.000000e+00
8.265635e+00	0.000000e+00
8.276058e+00	0.000000e+00
8.286481e+00	0.000000e+00
8.296905e+00	0.000000e+00
8.307328e+00	0.000000e+00
8.317751e+00	0.000000e+00
8.328174e+00	0.000000e+00
8.338598e+00	0.000000e+00
8.349021e+00	2.325517e-39
8.359444e+00	2.398354e-36
8.369867e+00	4.621205e-34
8.380291e+00	1.663586e-32
8.390714e+00	1.118880e-31
8.401137e+00	1.405950e-31
8.411560e+00	3.301289e-32
8.421984e+00	1.846124e-33
8.432407e+00	4.947329e-33
8.442830e+00	1.230143e-32
8.453253e+00	4.251905e-32
8.463677e+00	2.948786e-31
8.474100e+00	4.310041e-31
8.484523e+00	2.003490e-11
8.494946e+00	6.009037e-08
8.505370e+00	3.367213e-05
8.515793e+00	3.525207e-03
8.526216e+00	6.895198e-02
8.536639e+00	2.519747e-01
8.547063e+00	1.720345e-01
8.557486e+00	2.194431e-02
8.567909e+00	5.229700e-04
8.578332e+00	2.328518e-06
8.588756e+00	1.937005e-09
8.599179e+00	7.519857e-38
8.609602e+00	2.289543e-35
8.620025e+00	1.302489e-33
8.630449e+00	1.387803e-32
8.640872e+00	2.958802e-32
8.651295e+00	3.257564e-32
8.661718e+00	4.514492e-32
8.672142e+00	1.649413e-32
8.682565e+00	1.142551e-33
8.692988e+00	1.479430e-35
8.703411e+00	4.704408e-38
8.713834e+00	3.426317e-36
8.724258e+00	1.948999e-34
8.734681e+00	2.071338e-33
8.745104e+00	4.124624e-33
8.755527e+00	2.596606e-33
8.765951e+00	1.809018e-32
8.776374e+00	5.642683e-32
8.786797e+00	1.288585e-12
8.797220e+00	4.501557e-09
8.807644e+00	2.938059e-06
8.818067e+00	3.582667e-04
8.828490e+00	8.162075e-03
8.838913e+00	3.474104e-02
8.849337e+00	2.762697e-02
8.859760e+00	4.104609e-03
8.870183e+00	1.139354e-04
8.880606e+00	5.908724e-07
8.891030e+00	1.467321e-09
8.901453e+00	4.304963e-07
8.911876e+00	3.869636e-05
8.922299e+00	6.512842e-04
8.932723e+00	2.283818e-03
8.943146e+00	8.770002e-03
8.953569e+00	4.387162e-02
8.963992e+00	4.719165e-02
8.974416e+00	9.511380e-03
8.984839e+00	3.581738e-04
8.995262e+00	2.519954e-06
9.005685e+00	3.312376e-09
9.016109e+00	8.134574e-13
9.026532e+00	4.822497e-35
9.036955e+00	3.195141e-33
9.047378e+00	3.955088e-32
9.057802e+00	9.146827e-32
9.068225e+00	3.952146e-32
9.078648e+00	3.190389e-33
9.089071e+00	4.812152e-35
9.099495e+00	1.588103e-36
9.109918e+00	9.623656e-35
9.120341e+00	1.191258e-33
9.130764e+00	2.754991e-33
9.141188e+00	1.190374e-33
9.151611e+00	9.766039e-35
9.162034e+00	3.033897e-34
9.172457e+00	1.086955e-32
9.182881e+00	7.310541e-32
9.193304e+00	9.186200e-32
9.203727e+00	2.156604e-32
9.214150e+00	9.459172e-34
9.224574e+00	7.751468e-36
9.234997e+00	1.189978e-38
9.245420e+00	5.243821e-38
9.255843e+00	1.596458e-35
9.266267e+00	1.742195e-10
9.276690e+00	3.306880e-07
9.287113e+00	1.172704e-04
9.297536e+00	7.769737e-03
9.307960e+00	9.617728e-02
9.318383e+00	2.224266e-01
9.328806e+00	9.610573e-02
9.339229e+00	7.758181e-03
9.349653e+00	1.170088e-04
9.360076e+00	3.297051e-07
9.370499e+00	1.735724e-10
9.380922e+00	1.241458e-32
9.391346e+00	2.562311e-32
9.401769e+00	1.571858e-11
9.412192e+00	3.475096e-08
9.422615e+00	1.435386e-05
9.433039e+00	1.107691e-03
9.443462e+00	1.597044e-02
9.453885e+00	4.301928e-02
9.464308e+00	2.164998e-02
9.474732e+00	2.035707e-03
9.485155e+00	6.063744e-05
9.495578e+00	1.648405e-03
9.506001e+00	2.040324e-02
9.516425e+00	4.718604e-02
9.526848e+00	2.038806e-02
9.537271e+00	1.645836e-03
9.547694e+00	2.482884e-05
9.558117e+00	3.627133e-06
9.568541e+00	3.724096e-04
9.578964e+00	7.284219e-03
9.589387e+00	2.661909e-02
9.599810e+00	1.817407e-02
9.610234e+00	2.326612e-03
9.620657e+00	7.225969e-04
9.631080e+00	1.082788e-02
9.641503e+00	4.198249e-02
9.651927e+00	4.657567e-02
9.662350e+00	1.381933e-02
9.672773e+00	8.971610e-04
9.683196e+00	2.361735e-05
9.693620e+00	2.049267e-04
9.704043e+00	6.428633e-04
9.714466e+00	3.768296e-04
9.724889e+00	4.126859e-05
9.735313e+00	8.443887e-07
9.745736e+00	3.228105e-09
9.756159e+00	8.920106e-10
9.766582e+00	5.806895e-07
9.777006e+00	7.080924e-05
9.787429e+00	1.613184e-03
9.797852e+00	6.866355e-03
9.808275e+00	5.460302e-03
9.818699e+00	8.112510e-04
9.829122e+00	2.251863e-05
9.839545e+00	1.167823e-07
9.849968e+00	1.131514e-10
9.860392e+00	1.693432e-36
9.870815e+00	1.772890e-34
9.881238e+00	3.467719e-33
9.891661e+00	1.267226e-32
9.902085e+00	8.651923e-33
9.912508e+00	1.103619e-33
9.922931e+00	2.630111e-35
9.933354e+00	1.171054e-37
9.943778e+00	9.741548e-41
9.954201e+00	0.000000e+00
9.964624e+00	0.000000e+00
9.975047e+00	8.512096e-11
9.985471e+00	1.881872e-07
9.995894e+00	7.773060e-05
1.000632e+01	5.998492e-03
1.001674e+01	8.648540e-02
1.002716e+01	2.330276e-01
1.003759e+01	1.187181e-01
1.004801e+01	1.730922e-02
1.005843e+01	5.192136e-03
1.006886e+01	7.432736e-04
1.007928e+01	2.061447e-05
1.008970e+01	1.069052e-07
1.010013e+01	1.143662e-10
1.011055e+01	2.388034e-08
1.012097e+01	9.892922e-06
1.013140e+01	7.699847e-04
1.014182e+01	1.137591e-02
1.015224e+01	3.279298e-02
1.016267e+01	1.965005e-02
1.017309e+01	2.708002e-03
1.018351e+01	9.152690e-05
1.019394e+01	7.199405e-07
1.020436e+01	1.189611e-09
1.021478e+01	3.798861e-13
1.022521e+01	5.431702e-35
1.023563e+01	7.034929e-37
1.024605e+01	2.999031e-37
1.025648e+01	1.057498e-34
1.026690e+01	7.006446e-33
1.027732e+01	8.672891e-32
1.028774e+01	2.005757e-31
1.029817e+01	8.666439e-32
1.030859e+01	6.996025e-33
1.031901e+01	1.055140e-34
1.032944e+01	2.973152e-37
1.033986e+01	1.565208e-40
1.035028e+01	0.000000e+00
1.036071e+01	0.000000e+00
1.037113e+01	0.000000e+00
1.038155e+01	0.000000e+00
1.039198e+01	0.000000e+00
1.040240e+01	0.000000e+00
1.041282e+01	1.380367e-41
1.042325e+01	4.140112e-38
1.043367e+01	2.319946e-35
1.044409e+01	2.428800e-33
1.045452e+01	3.944792e-11
1.046494e+01	6.428561e-08
1.047536e+01	1.957274e-05
1.048579e+01	1.113365e-03
1.049621e+01	1.183237e-02
1.050663e+01	2.349385e-02
1.051706e+01	8.715346e-03
1.052748e+01	6.040367e-04
1.053790e+01	7.821501e-06
1.054833e+01	1.892191e-08
1.055875e+01	8.552404e-12
1.056917e+01	2.012944e-32
1.057960e+01	1.179935e-32
1.059002e+01	1.292209e-33
1.060044e+01	2.643964e-35
1.061087e+01	1.010710e-37
1.062129e+01	2.566217e-11
1.063171e+01	3.590468e-08
1.064214e+01	9.385489e-06
1.065256e+01	4.583645e-04
1.066298e+01	4.182280e-03
1.067340e+01	7.129572e-03
1.068383e+01	2.270712e-03
1.069425e+01	1.351166e-04
1.070467e+01	1.502116e-06
1.071510e+01	3.119941e-09
1.072552e+01	1.210703e-12
1.073594e+01	3.579796e-33
1.074637e+01	6.790843e-33
1.075679e+01	5.227586e-33
1.076721e+01	1.987434e-32
1.077764e+01	6.208728e-11
1.078806e+01	1.011795e-07
1.079848e+01	3.080564e-05
1.080891e+01	1.752331e-03
1.081933e+01	1.862303e-02
1.082975e+01	3.697709e-02
1.084018e+01	1.371713e-02
1.085060e+01	9.506964e-04
1.086102e+01	1.231030e-05
1.087145e+01	2.978130e-08
1.088187e+01	1.346067e-11
1.089229e+01	4.093729e-10
1.090272e+01	3.624774e-07
1.091314e+01	5.996403e-05
1.092356e+01	1.853314e-03
1.093399e+01	1.070176e-02
1.094441e+01	1.154541e-02
1.095483e+01	2.327084e-03
1.096526e+01	8.763201e-05
1.097568e+01	6.165405e-07
1.098610e+01	8.104172e-10
1.099653e+01	1.990233e-13
1.100695e+01	1.001710e-35
1.101737e+01	3.605661e-34
1.102780e+01	2.425608e-33
1.103822e+01	3.152891e-33
1.104864e+01	4.518163e-33
1.105907e+01	7.978441e-12
1.106949e+01	2.054488e-08
1.107991e+01	9.884154e-06
1.109033e+01	8.884772e-04
1.110076e+01	1.493164e-02
1.111118e+01	4.732463e-02
1.112160e+01	3.147866e-02
1.113203e+01	8.918569e-03
1.114245e+01	1.678535e-03
1.115287e+01	8.284620e-05
1.116330e+01	7.886677e-07
1.117372e+01	1.406088e-09
1.118414e+01	4.684592e-13
1.119457e+01	0.000000e+00
1.120499e+01	0.000000e+00
1.121541e+01	0.000000e+00
1.122584e+01	0.000000e+00
1.123626e+01	0.000000e+00
1.124668e+01	0.000000e+00
1.125711e+01	0.000000e+00
1.126753e+01	0.000000e+00
1.127795e+01	1.836460e-12
1.128838e+01	2.570133e-09
1.129880e+01	6.740598e-07
1.130922e+01	3.437263e-05
1.131965e+01	4.908299e-04
1.133007e+01	4.873754e-03
1.134049e+01	1.873547e-02
1.135092e+01	1.477937e-02
1.136134e+01	2.194480e-03
1.137176e+01	6.091141e-05
1.138219e+01	3.158872e-07
1.139261e+01	1.066683e-09
1.140303e+01	7.853649e-07
1.141346e+01	1.519666e-04
1.142388e+01	5.576624e-03
1.143430e+01	4.078240e-02
1.144473e+01	7.016067e-02
1.145515e+01	3.687795e-02
1.146557e+01	5.855003e-03
1.147599e+01	4.050506e-03
1.148642e+01	2.222508e-02
1.149684e+01	2.397565e-02
1.150726e+01	4.832512e-03
1.151769e+01	1.819800e-04
1.152811e+01	1.280332e-06
1.153853e+01	1.682943e-09
1.154896e+01	4.132993e-13
1.155938e+01	0.000000e+00
1.156980e+01	1.228826e-13
1.158023e+01	5.000024e-10
1.159065e+01	3.801035e-07
1.160107e+01	5.398583e-05
1.161150e+01	1.432537e-03
1.162192e+01	7.101993e-03
1.163234e+01	6.579963e-03
1.164277e+01	1.398589e-03
1.165319e+01	6.942548e-03
1.166361e+01	3.423636e-02
1.167404e+01	3.171080e-02
1.168446e+01	5.488030e-03
1.169488e+01	2.371427e-04
1.170531e+01	1.361738e-03
1.171573e+01	5.791540e-03
1.172615e+01	4.605580e-03
1.173658e+01	6.842628e-04
1.174700e+01	1.899370e-05
1.175742e+01	9.850189e-08
1.176785e+01	9.543938e-11
1.177827e+01	4.634956e-32
1.178869e+01	2.060952e-32
1.179912e+01	7.894429e-33
1.180954e+01	1.321661e-32
1.181996e+01	7.986546e-33
1.183039e+01	3.012874e-33
1.184081e+01	4.044052e-34
1.185123e+01	1.112087e-35
1.186166e+01	5.762589e-38
1.187208e+01	5.582988e-41
1.188250e+01	0.000000e+00
1.189292e+01	0.000000e+00
1.190335e+01	0.000000e+00
1.191377e+01	1.148308e-11
1.192419e+01	1.016764e-08
1.193462e+01	1.682016e-06
1.194504e+01	5.198621e-05
1.195546e+01	3.001888e-04
1.196589e+01	3.238537e-04
1.197631e+01	6.527900e-05
1.198673e+01	4.627465e-06
1.199716e+01	2.645478e-04
1.200758e+01	6.026564e-03
1.201800e+01	2.565146e-02
1.202843e+01	2.039870e-02
1.203885e+01	3.030687e-03
1.204927e+01	8.412552e-05
1.205970e+01	4.362774e-07
1.207012e+01	4.227131e-10
1.208054e+01	2.673283e-34
1.209097e+01	1.155068e-34
1.210139e+01	1.218037e-10
1.211181e+01	1.704191e-07
1.212224e+01	4.454758e-05
1.213266e+01	2.175596e-03
1.214308e+01	1.985102e-02
1.215351e+01	3.386135e-02
1.216393e+01	1.169029e-02
1.217435e+01	1.016800e-02
1.218478e+01	2.364260e-02
1.219520e+01	1.260544e-02
1.220562e+01	2.390023e-03
1.221605e+01	1.976763e-02
1.222647e+01	7.539954e-02
1.223689e+01	5.853061e-02
1.224732e+01	9.065541e-03
1.225774e+01	2.744216e-04
1.226816e+01	1.596325e-06
1.227858e+01	1.763924e-09
1.228901e+01	1.903214e-35
1.229943e+01	9.269088e-34
1.230985e+01	8.457445e-33
1.232028e+01	1.441749e-32
1.233070e+01	4.593546e-33
1.234112e+01	4.253291e-34
1.235155e+01	2.557183e-33
1.236197e+01	8.013536e-33
1.237239e+01	4.697321e-33
1.238282e+01	5.145274e-34
1.239324e+01	3.641382e-35
1.240366e+01	1.264357e-33
1.241409e+01	1.153608e-32
1.242451e+01	1.966566e-32
1.243493e+01	6.263355e-33
1.244536e+01	2.273704e-10
1.245578e+01	2.731238e-07
1.246620e+01	6.129619e-05
1.247663e+01	2.570133e-03
1.248705e+01	2.013380e-02
1.249747e+01	2.946756e-02
1.250790e+01	8.057692e-03
1.251832e+01	4.116473e-04
1.252874e+01	3.929055e-06
1.253917e+01	7.072247e-09
1.254959e+01	9.204099e-08
1.256001e+01	2.407028e-05
1.257044e+01	1.180223e-03
1.258086e+01	1.113069e-02
1.259128e+01	2.419248e-02
1.260171e+01	2.176046e-02
1.261213e+01	8.368365e-03
1.262255e+01	7.581201e-04
1.263298e+01	1.325805e-05
1.264340e+01	4.349057e-08
1.265382e+01	2.326398e-09
1.266425e+01	1.289162e-06
1.267467e+01	1.352830e-04
1.268509e+01	2.684867e-03
1.269551e+01	1.069477e-02
1.270594e+01	1.106157e-02
1.271636e+01	4.400854e-03
1.272678e+01	5.490921e-04
1.273721e+01	1.487782e-05
1.274763e+01	7.993639e-06
1.275805e+01	1.141710e-04
1.276848e+01	3.169995e-04
1.277890e+01	1.009769e-03
1.278932e+01	1.437300e-02
1.279975e+01	4.504934e-02
1.281017e+01	2.640761e-02
1.282059e+01	3.088132e-03
1.283102e+01	7.122436e-03
1.284144e+01	4.750571e-02
1.285186e+01	5.969392e-02
1.286229e+01	1.401460e-02
1.287271e+01	7.012724e-04
1.288313e+01	2.681433e-03
1.289356e+01	1.545456e-02
1.290398e+01	1.667289e-02
1.291440e+01	3.360574e-03
1.292483e+01	1.265506e-04
1.293525e+01	8.903547e-07
1.294567e+01	1.170335e-09
1.295610e+01	2.874122e-13
1.296652e+01	0.000000e+00
1.297694e+01	0.000000e+00
1.298737e+01	0.000000e+00
1.299779e+01	0.000000e+00
1.300821e+01	0.000000e+00
1.301864e+01	0.000000e+00
1.302906e+01	2.457675e-40
1.303948e+01	4.955195e-12
1.304991e+01	1.095505e-08
1.306033e+01	4.524976e-06
1.307075e+01	3.491936e-04
1.308117e+01	5.034594e-03
1.309160e+01	1.356159e-02
1.310202e+01	6.825107e-03
1.311244e+01	6.489992e-04
1.312287e+01	2.614085e-04
1.313329e+01	2.279692e-03
1.314371e+01	4.362766e-03
1.315414e+01	1.605216e-03
1.316456e+01	1.110539e-04
1.317498e+01	1.437445e-06
1.318541e+01	3.478871e-09
1.319583e+01	5.853117e-09
1.320625e+01	3.819164e-06
1.321668e+01	4.657086e-04
1.322710e+01	1.060983e-02
1.323752e+01	4.515966e-02
1.324795e+01	3.591212e-02
1.325837e+01	5.335555e-03
1.326879e+01	1.481039e-04
1.327922e+01	7.680708e-07
1.328964e+01	7.441908e-10
1.330006e+01	1.204218e-32
1.331049e+01	1.528310e-32
1.332091e+01	9.033731e-33
1.333133e+01	3.702300e-32
1.334176e+01	4.632760e-32
1.335218e+01	1.090058e-32
1.336260e+01	1.243827e-33
1.337303e+01	2.986988e-12
1.338345e+01	7.691644e-09
1.339387e+01	3.700437e-06
1.340430e+01	3.326097e-04
1.341472e+01	5.585539e-03
1.342514e+01	1.752441e-02
1.343557e+01	1.027235e-02
1.344599e+01	1.124979e-03
1.345641e+01	2.301809e-05
1.346684e+01	1.528105e-07
1.347726e+01	6.786156e-06
1.348768e+01	1.327339e-04
1.349810e+01	4.850563e-04
1.350853e+01	3.311747e-04
1.351895e+01	4.583483e-05
1.352937e+01	5.279092e-04
1.353980e+01	1.601093e-02
1.355022e+01	1.024882e-01
1.356064e+01	1.376166e-01
1.357107e+01	3.796300e-02
1.358149e+01	2.099249e-03
1.359191e+01	2.281534e-05
1.360234e+01	4.809454e-08
1.361276e+01	1.939777e-11
1.362318e+01	2.928153e-41
1.363361e+01	3.261633e-41
1.364403e+01	8.233096e-12
1.365445e+01	1.341692e-08
1.366488e+01	4.084988e-06
1.367530e+01	2.323682e-04
1.368572e+01	2.469511e-03
1.369615e+01	4.903354e-03
1.370657e+01	1.818963e-03
1.371699e+01	1.261446e-04
1.372742e+01	2.904322e-05
1.373784e+01	1.816105e-03
1.374826e+01	2.248051e-02
1.375869e+01	5.199074e-02
1.376911e+01	2.259128e-02
1.377953e+01	6.403167e-03
1.378996e+01	3.089891e-02
1.380038e+01	3.901272e-02
1.381080e+01	1.346983e-02
1.382123e+01	1.634471e-02
1.383165e+01	1.089043e-02
1.384207e+01	1.442469e-03
1.385250e+01	9.365606e-04
1.386292e+01	2.834737e-03
1.387334e+01	1.661563e-03
1.388377e+01	1.819664e-04
1.389419e+01	3.723180e-06
1.390461e+01	1.423262e-08
1.391503e+01	1.016492e-11
1.392546e+01	2.341797e-42
1.393588e+01	0.000000e+00
1.394630e+01	0.000000e+00
1.395673e+01	0.000000e+00
1.396715e+01	0.000000e+00
1.397757e+01	0.000000e+00
1.398800e+01	1.645569e-11
1.399842e+01	2.683029e-08
1.400884e+01	8.176772e-06
1.401927e+01	4.664267e-04
1.402969e+01	4.997274e-03
1.404011e+01	1.015502e-02
1.405054e+01	4.018128e-03
1.406096e+01	3.302393e-04
1.407138e+01	8.336235e-05
1.408181e+01	9.555975e-04
1.409223e+01	2.209920e-03
1.410265e+01	9.548583e-04
1.411308e+01	7.708224e-05
1.412350e+01	1.807363e-06
1.413392e+01	9.158691e-05
1.414435e+01	2.430211e-03
1.415477e+01	1.204809e-02
1.416519e+01	1.115939e-02
1.417562e+01	1.931128e-03
1.418604e+01	6.243525e-05
1.419646e+01	3.771370e-07
1.420689e+01	7.668504e-09
1.421731e+01	4.727265e-06
1.422773e+01	5.764423e-04
1.423816e+01	1.313258e-02
1.424858e+01	5.589748e-02
1.425900e+01	4.445111e-02
1.426943e+01	6.604215e-03
1.427985e+01	1.833192e-04
1.429027e+01	9.506985e-07
1.430069e+01	9.211405e-10
1.431112e+01	4.924491e-38
1.432154e+01	1.740857e-15
1.433196e+01	7.561666e-12
1.434239e+01	6.953681e-09
1.435281e+01	1.707258e-06
1.436323e+01	1.311679e-04
1.437366e+01	2.708675e-03
1.438408e+01	1.257936e-02
1.439450e+01	1.226277e-02
1.440493e+01	2.898670e-03
1.441535e+01	5.040246e-03
1.442577e+01	9.817380e-03
1.443620e+01	3.641610e-03
1.444662e+01	2.523899e-04
1.445704e+01	3.268125e-06
1.446747e+01	7.906307e-09
1.447789e+01	3.573525e-12
1.448831e+01	4.766397e-34
1.449874e+01	4.549388e-36
1.450916e+01	1.025805e-11
1.451958e+01	1.671685e-08
1.453001e+01	5.089701e-06
1.454043e+01	2.895198e-04
1.455085e+01	3.076893e-03
1.456128e+01	6.109347e-03
1.457170e+01	2.266341e-03
1.458212e+01	1.570739e-04
1.459255e+01	2.033905e-06
1.460297e+01	4.920672e-09
1.461339e+01	7.432520e-10
1.462382e+01	4.836514e-07
1.463424e+01	5.897641e-05
1.464466e+01	1.343608e-03
1.465509e+01	5.718929e-03
1.466551e+01	4.547840e-03
1.467593e+01	6.756841e-04
1.468636e+01	1.877203e-05
1.469678e+01	3.789005e-06
1.470720e+01	1.547937e-04
1.471762e+01	1.212645e-03
1.472805e+01	1.782634e-03
1.473847e+01	8.944556e-04
1.474889e+01	5.413418e-03
1.475932e+01	2.968416e-02
1.476974e+01	5.709445e-02
1.478016e+01	2.540816e-02
1.479059e+01	4.309254e-03
1.480101e+01	1.935023e-03
1.481143e+01	6.001630e-04
1.482186e+01	4.083713e-05
1.483228e+01	5.277983e-07
1.484270e+01	1.276616e-09
1.485313e+01	5.769977e-13
1.486355e+01	3.689673e-32
1.487397e+01	4.111655e-32
1.488440e+01	1.489588e-32
1.489482e+01	1.032043e-33
1.490524e+01	8.887468e-35
1.491567e+01	2.718545e-33
1.492609e+01	1.828393e-32
1.493651e+01	2.297502e-32
1.494694e+01	5.393885e-33
1.495736e+01	2.523108e-34
1.496778e+01	4.124954e-34
1.497821e+01	3.226911e-33
1.498863e+01	7.620262e-33
1.499905e+01	4.147389e-33
1.500000e+01	3.625382e-33