File: cif_pxrd_calculator/example/txt/iq/li0.5tio2_li0.5tio2_8262.txt
# Q [Å^-1]	I_scaled [a.u.]
0.000000e+00	0.000000e+00
5.516321e-03	0.000000e+00
1.103264e-02	0.000000e+00
1.654896e-02	0.000000e+00
2.206528e-02	0.000000e+00
2.758161e-02	0.000000e+00
3.309793e-02	0.000000e+00
3.861425e-02	0.000000e+00
4.413057e-02	0.000000e+00
4.964689e-02	0.000000e+00
5.516321e-02	0.000000e+00
6.067952e-02	0.000000e+00
6.619584e-02	0.000000e+00
7.171216e-02	0.000000e+00
7.722848e-02	0.000000e+00
8.274479e-02	0.000000e+00
8.826111e-02	0.000000e+00
9.377742e-02	0.000000e+00
9.929374e-02	0.000000e+00
1.048101e-01	0.000000e+00
1.103264e-01	0.000000e+00
1.158427e-01	0.000000e+00
1.213590e-01	0.000000e+00
1.268753e-01	0.000000e+00
1.323916e-01	0.000000e+00
1.379079e-01	0.000000e+00
1.434242e-01	0.000000e+00
1.489405e-01	0.000000e+00
1.544568e-01	0.000000e+00
1.599731e-01	0.000000e+00
1.654894e-01	0.000000e+00
1.710057e-01	0.000000e+00
1.765220e-01	0.000000e+00
1.820383e-01	0.000000e+00
1.875546e-01	0.000000e+00
1.930709e-01	0.000000e+00
1.985872e-01	0.000000e+00
2.041035e-01	0.000000e+00
2.096198e-01	0.000000e+00
2.151361e-01	0.000000e+00
2.206524e-01	0.000000e+00
2.261686e-01	0.000000e+00
2.316849e-01	0.000000e+00
2.372012e-01	0.000000e+00
2.427175e-01	0.000000e+00
2.482338e-01	0.000000e+00
2.537500e-01	0.000000e+00
2.592663e-01	0.000000e+00
2.647826e-01	0.000000e+00
2.702988e-01	0.000000e+00
2.758151e-01	0.000000e+00
2.813314e-01	0.000000e+00
2.868476e-01	0.000000e+00
2.923639e-01	0.000000e+00
2.978802e-01	0.000000e+00
3.033964e-01	0.000000e+00
3.089127e-01	0.000000e+00
3.144289e-01	0.000000e+00
3.199452e-01	0.000000e+00
3.254614e-01	0.000000e+00
3.309776e-01	0.000000e+00
3.364939e-01	0.000000e+00
3.420101e-01	0.000000e+00
3.475263e-01	0.000000e+00
3.530426e-01	0.000000e+00
3.585588e-01	0.000000e+00
3.640750e-01	0.000000e+00
3.695912e-01	0.000000e+00
3.751075e-01	0.000000e+00
3.806237e-01	0.000000e+00
3.861399e-01	0.000000e+00
3.916561e-01	0.000000e+00
3.971723e-01	0.000000e+00
4.026885e-01	0.000000e+00
4.082047e-01	0.000000e+00
4.137209e-01	0.000000e+00
4.192371e-01	0.000000e+00
4.247533e-01	0.000000e+00
4.302695e-01	0.000000e+00
4.357856e-01	0.000000e+00
4.413018e-01	0.000000e+00
4.468180e-01	0.000000e+00
4.523342e-01	0.000000e+00
4.578503e-01	0.000000e+00
4.633665e-01	0.000000e+00
4.688826e-01	0.000000e+00
4.743988e-01	0.000000e+00
4.799149e-01	0.000000e+00
4.854311e-01	0.000000e+00
4.909472e-01	0.000000e+00
4.964634e-01	0.000000e+00
5.019795e-01	0.000000e+00
5.074956e-01	0.000000e+00
5.130118e-01	0.000000e+00
5.185279e-01	0.000000e+00
5.240440e-01	0.000000e+00
5.295601e-01	0.000000e+00
5.350762e-01	0.000000e+00
5.405923e-01	0.000000e+00
5.461084e-01	0.000000e+00
5.516245e-01	0.000000e+00
5.571406e-01	0.000000e+00
5.626567e-01	0.000000e+00
5.681728e-01	0.000000e+00
5.736889e-01	0.000000e+00
5.792049e-01	0.000000e+00
5.847210e-01	0.000000e+00
5.902371e-01	0.000000e+00
5.957531e-01	0.000000e+00
6.012692e-01	0.000000e+00
6.067852e-01	0.000000e+00
6.123013e-01	0.000000e+00
6.178173e-01	0.000000e+00
6.233333e-01	0.000000e+00
6.288494e-01	4.642082e-41
6.343654e-01	1.392292e-37
6.398814e-01	7.801826e-35
6.453974e-01	8.167896e-33
6.509134e-01	1.597616e-31
6.564294e-01	5.838249e-31
6.619454e-01	3.986034e-31
6.674614e-01	5.084493e-32
6.729774e-01	1.211720e-33
6.784934e-01	5.395172e-36
6.840093e-01	4.488036e-39
6.895253e-01	0.000000e+00
6.950413e-01	0.000000e+00
7.005572e-01	0.000000e+00
7.060732e-01	0.000000e+00
7.115891e-01	0.000000e+00
7.171051e-01	0.000000e+00
7.226210e-01	0.000000e+00
7.281369e-01	0.000000e+00
7.336528e-01	0.000000e+00
7.391688e-01	0.000000e+00
7.446847e-01	0.000000e+00
7.502006e-01	0.000000e+00
7.557165e-01	0.000000e+00
7.612323e-01	0.000000e+00
7.667482e-01	0.000000e+00
7.722641e-01	0.000000e+00
7.777800e-01	0.000000e+00
7.832958e-01	0.000000e+00
7.888117e-01	0.000000e+00
7.943276e-01	0.000000e+00
7.998434e-01	0.000000e+00
8.053592e-01	0.000000e+00
8.108751e-01	0.000000e+00
8.163909e-01	0.000000e+00
8.219067e-01	0.000000e+00
8.274225e-01	0.000000e+00
8.329383e-01	0.000000e+00
8.384541e-01	0.000000e+00
8.439699e-01	0.000000e+00
8.494857e-01	0.000000e+00
8.550015e-01	0.000000e+00
8.605172e-01	0.000000e+00
8.660330e-01	0.000000e+00
8.715488e-01	0.000000e+00
8.770645e-01	0.000000e+00
8.825803e-01	0.000000e+00
8.880960e-01	0.000000e+00
8.936117e-01	0.000000e+00
8.991274e-01	0.000000e+00
9.046431e-01	0.000000e+00
9.101588e-01	0.000000e+00
9.156745e-01	0.000000e+00
9.211902e-01	0.000000e+00
9.267059e-01	0.000000e+00
9.322216e-01	0.000000e+00
9.377373e-01	0.000000e+00
9.432529e-01	0.000000e+00
9.487686e-01	0.000000e+00
9.542842e-01	0.000000e+00
9.597998e-01	0.000000e+00
9.653155e-01	0.000000e+00
9.708311e-01	0.000000e+00
9.763467e-01	0.000000e+00
9.818623e-01	0.000000e+00
9.873779e-01	0.000000e+00
9.928935e-01	0.000000e+00
9.984091e-01	0.000000e+00
1.003925e+00	0.000000e+00
1.009440e+00	0.000000e+00
1.014956e+00	0.000000e+00
1.020471e+00	0.000000e+00
1.025987e+00	0.000000e+00
1.031502e+00	0.000000e+00
1.037018e+00	0.000000e+00
1.042533e+00	0.000000e+00
1.048049e+00	0.000000e+00
1.053564e+00	0.000000e+00
1.059080e+00	0.000000e+00
1.064595e+00	0.000000e+00
1.070111e+00	0.000000e+00
1.075626e+00	0.000000e+00
1.081142e+00	0.000000e+00
1.086657e+00	0.000000e+00
1.092173e+00	0.000000e+00
1.097688e+00	0.000000e+00
1.103203e+00	0.000000e+00
1.108719e+00	0.000000e+00
1.114234e+00	0.000000e+00
1.119750e+00	0.000000e+00
1.125265e+00	0.000000e+00
1.130780e+00	0.000000e+00
1.136296e+00	0.000000e+00
1.141811e+00	0.000000e+00
1.147326e+00	0.000000e+00
1.152842e+00	0.000000e+00
1.158357e+00	0.000000e+00
1.163872e+00	0.000000e+00
1.169388e+00	0.000000e+00
1.174903e+00	0.000000e+00
1.180418e+00	0.000000e+00
1.185933e+00	0.000000e+00
1.191449e+00	0.000000e+00
1.196964e+00	0.000000e+00
1.202479e+00	0.000000e+00
1.207994e+00	0.000000e+00
1.213510e+00	0.000000e+00
1.219025e+00	0.000000e+00
1.224540e+00	1.559545e-42
1.230055e+00	3.447876e-39
1.235570e+00	1.424142e-36
1.241086e+00	1.099015e-34
1.246601e+00	1.584534e-33
1.252116e+00	4.268231e-33
1.257631e+00	2.148040e-33
1.263146e+00	2.019691e-34
1.268661e+00	3.547936e-36
1.274176e+00	1.164433e-38
1.279692e+00	7.140058e-42
1.285207e+00	0.000000e+00
1.290722e+00	1.869961e-10
1.296237e+00	2.246251e-07
1.301752e+00	5.041180e-05
1.307267e+00	2.113753e-03
1.312782e+00	1.655863e-02
1.318297e+00	2.423499e-02
1.323812e+00	6.626884e-03
1.329327e+00	3.385509e-04
1.334842e+00	3.231371e-06
1.340357e+00	5.762326e-09
1.345872e+00	1.919804e-12
1.351387e+00	0.000000e+00
1.356902e+00	0.000000e+00
1.362417e+00	0.000000e+00
1.367932e+00	0.000000e+00
1.373447e+00	0.000000e+00
1.378961e+00	0.000000e+00
1.384476e+00	0.000000e+00
1.389991e+00	2.981073e-08
1.395506e+00	2.639577e-05
1.401021e+00	4.366608e-03
1.406536e+00	1.349591e-01
1.412051e+00	7.793069e-01
1.417565e+00	8.407423e-01
1.423080e+00	1.694593e-01
1.428595e+00	6.381403e-03
1.434110e+00	4.489676e-05
1.439625e+00	5.901495e-08
1.445139e+00	1.449296e-11
1.450654e+00	0.000000e+00
1.456169e+00	0.000000e+00
1.461684e+00	0.000000e+00
1.467198e+00	0.000000e+00
1.472713e+00	0.000000e+00
1.478228e+00	0.000000e+00
1.483742e+00	0.000000e+00
1.489257e+00	0.000000e+00
1.494772e+00	0.000000e+00
1.500286e+00	0.000000e+00
1.505801e+00	0.000000e+00
1.511316e+00	0.000000e+00
1.516830e+00	0.000000e+00
1.522345e+00	0.000000e+00
1.527859e+00	0.000000e+00
1.533374e+00	0.000000e+00
1.538888e+00	0.000000e+00
1.544403e+00	0.000000e+00
1.549918e+00	0.000000e+00
1.555432e+00	0.000000e+00
1.560947e+00	0.000000e+00
1.566461e+00	0.000000e+00
1.571975e+00	0.000000e+00
1.577490e+00	0.000000e+00
1.583004e+00	0.000000e+00
1.588519e+00	0.000000e+00
1.594033e+00	0.000000e+00
1.599548e+00	0.000000e+00
1.605062e+00	0.000000e+00
1.610576e+00	0.000000e+00
1.616091e+00	0.000000e+00
1.621605e+00	0.000000e+00
1.627120e+00	0.000000e+00
1.632634e+00	0.000000e+00
1.638148e+00	0.000000e+00
1.643662e+00	0.000000e+00
1.649177e+00	0.000000e+00
1.654691e+00	0.000000e+00
1.660205e+00	0.000000e+00
1.665720e+00	0.000000e+00
1.671234e+00	0.000000e+00
1.676748e+00	0.000000e+00
1.682262e+00	0.000000e+00
1.687776e+00	0.000000e+00
1.693291e+00	0.000000e+00
1.698805e+00	0.000000e+00
1.704319e+00	0.000000e+00
1.709833e+00	0.000000e+00
1.715347e+00	0.000000e+00
1.720861e+00	0.000000e+00
1.726375e+00	0.000000e+00
1.731889e+00	0.000000e+00
1.737403e+00	0.000000e+00
1.742918e+00	0.000000e+00
1.748432e+00	0.000000e+00
1.753946e+00	0.000000e+00
1.759460e+00	0.000000e+00
1.764974e+00	0.000000e+00
1.770488e+00	0.000000e+00
1.776002e+00	0.000000e+00
1.781515e+00	0.000000e+00
1.787029e+00	8.897743e-13
1.792543e+00	3.620441e-09
1.798057e+00	2.752271e-06
1.803571e+00	3.909032e-04
1.809085e+00	1.037278e-02
1.814599e+00	5.142444e-02
1.820113e+00	4.763125e-02
1.825627e+00	8.242567e-03
1.831140e+00	2.664902e-04
1.836654e+00	1.609712e-06
1.842168e+00	1.816616e-09
1.847682e+00	0.000000e+00
1.853195e+00	0.000000e+00
1.858709e+00	0.000000e+00
1.864223e+00	0.000000e+00
1.869737e+00	0.000000e+00
1.875250e+00	0.000000e+00
1.880764e+00	0.000000e+00
1.886278e+00	0.000000e+00
1.891791e+00	0.000000e+00
1.897305e+00	0.000000e+00
1.902819e+00	0.000000e+00
1.908332e+00	0.000000e+00
1.913846e+00	0.000000e+00
1.919359e+00	0.000000e+00
1.924873e+00	0.000000e+00
1.930386e+00	0.000000e+00
1.935900e+00	0.000000e+00
1.941413e+00	0.000000e+00
1.946927e+00	3.342607e-41
1.952440e+00	7.389907e-38
1.957954e+00	3.052395e-35
1.963467e+00	2.355542e-33
1.968981e+00	3.396166e-32
1.974494e+00	9.148191e-32
1.980007e+00	4.603940e-32
1.985521e+00	4.328848e-33
1.991034e+00	7.604367e-35
1.996547e+00	2.495755e-37
2.002061e+00	1.530344e-40
2.007574e+00	0.000000e+00
2.013087e+00	0.000000e+00
2.018601e+00	0.000000e+00
2.024114e+00	0.000000e+00
2.029627e+00	0.000000e+00
2.035140e+00	0.000000e+00
2.040654e+00	0.000000e+00
2.046167e+00	0.000000e+00
2.051680e+00	0.000000e+00
2.057193e+00	0.000000e+00
2.062706e+00	0.000000e+00
2.068219e+00	0.000000e+00
2.073732e+00	0.000000e+00
2.079246e+00	0.000000e+00
2.084759e+00	0.000000e+00
2.090272e+00	0.000000e+00
2.095785e+00	0.000000e+00
2.101298e+00	0.000000e+00
2.106811e+00	1.535323e-41
2.112324e+00	2.148115e-38
2.117837e+00	5.615175e-36
2.123350e+00	2.742315e-34
2.128863e+00	2.502186e-33
2.134375e+00	4.265499e-33
2.139888e+00	1.358527e-33
2.145401e+00	8.083790e-35
2.150914e+00	8.986899e-37
2.156427e+00	1.866607e-39
2.161940e+00	7.243425e-43
2.167453e+00	0.000000e+00
2.172965e+00	0.000000e+00
2.178478e+00	0.000000e+00
2.183991e+00	0.000000e+00
2.189504e+00	0.000000e+00
2.195016e+00	0.000000e+00
2.200529e+00	0.000000e+00
2.206042e+00	3.535028e-40
2.211554e+00	4.945960e-37
2.217067e+00	1.292875e-34
2.222580e+00	6.314087e-33
2.228092e+00	5.761197e-32
2.233605e+00	9.821167e-32
2.239117e+00	3.127963e-32
2.244630e+00	1.861265e-33
2.250142e+00	2.069203e-35
2.255655e+00	4.297798e-38
2.261168e+00	1.667774e-41
2.266680e+00	0.000000e+00
2.272192e+00	0.000000e+00
2.277705e+00	0.000000e+00
2.283217e+00	0.000000e+00
2.288730e+00	0.000000e+00
2.294242e+00	0.000000e+00
2.299754e+00	0.000000e+00
2.305267e+00	0.000000e+00
2.310779e+00	1.421146e-10
2.316291e+00	3.141900e-07
2.321804e+00	1.297760e-04
2.327316e+00	1.001485e-02
2.332828e+00	1.443918e-01
2.338340e+00	3.889455e-01
2.343853e+00	1.957416e-01
2.349365e+00	1.840457e-02
2.354877e+00	3.233081e-04
2.360389e+00	1.061098e-06
2.365901e+00	6.506427e-10
2.371413e+00	0.000000e+00
2.376926e+00	0.000000e+00
2.382438e+00	0.000000e+00
2.387950e+00	0.000000e+00
2.393462e+00	0.000000e+00
2.398974e+00	0.000000e+00
2.404486e+00	0.000000e+00
2.409998e+00	0.000000e+00
2.415510e+00	0.000000e+00
2.421022e+00	0.000000e+00
2.426533e+00	0.000000e+00
2.432045e+00	0.000000e+00
2.437557e+00	0.000000e+00
2.443069e+00	0.000000e+00
2.448581e+00	4.770905e-10
2.454093e+00	4.224376e-07
2.459605e+00	6.988315e-05
2.465116e+00	2.159885e-03
2.470628e+00	1.247202e-02
2.476140e+00	1.345523e-02
2.481651e+00	2.712039e-03
2.487163e+00	1.119137e-04
2.492675e+00	1.364025e-03
2.498186e+00	3.713748e-02
2.503698e+00	1.961806e-01
2.509210e+00	1.991753e-01
2.514721e+00	3.855486e-02
2.520233e+00	1.413967e-03
2.525744e+00	9.779258e-06
2.531256e+00	1.275435e-08
2.536767e+00	1.038525e-07
2.542279e+00	4.996179e-05
2.547790e+00	4.490761e-03
2.553302e+00	7.541367e-02
2.558813e+00	2.366074e-01
2.564325e+00	1.386931e-01
2.569836e+00	1.518901e-02
2.575347e+00	3.119862e-04
2.580859e+00	4.463347e-05
2.586370e+00	2.922024e-04
2.591881e+00	3.671715e-04
2.597393e+00	8.619924e-05
2.602904e+00	3.780821e-06
2.608415e+00	3.158758e-08
2.613926e+00	5.357802e-07
2.619437e+00	8.862538e-05
2.624949e+00	2.739152e-03
2.630460e+00	1.581694e-02
2.635971e+00	1.706384e-02
2.641482e+00	3.439374e-03
2.646993e+00	1.295180e-04
2.652504e+00	9.112319e-07
2.658015e+00	1.197777e-09
2.663526e+00	2.941515e-13
2.669037e+00	0.000000e+00
2.674548e+00	0.000000e+00
2.680059e+00	0.000000e+00
2.685570e+00	0.000000e+00
2.691081e+00	0.000000e+00
2.696592e+00	0.000000e+00
2.702103e+00	0.000000e+00
2.707613e+00	0.000000e+00
2.713124e+00	0.000000e+00
2.718635e+00	0.000000e+00
2.724146e+00	0.000000e+00
2.729657e+00	0.000000e+00
2.735167e+00	0.000000e+00
2.740678e+00	0.000000e+00
2.746189e+00	0.000000e+00
2.751699e+00	0.000000e+00
2.757210e+00	0.000000e+00
2.762721e+00	0.000000e+00
2.768231e+00	0.000000e+00
2.773742e+00	5.058468e-11
2.779252e+00	1.302581e-07
2.784763e+00	6.266694e-05
2.790273e+00	5.632750e-03
2.795784e+00	9.459117e-02
2.801294e+00	2.967761e-01
2.806805e+00	1.739624e-01
2.812315e+00	1.905437e-02
2.817825e+00	6.444920e-04
2.823336e+00	4.278387e-03
2.828846e+00	1.341860e-02
2.834356e+00	7.865630e-03
2.839867e+00	8.614064e-04
2.845377e+00	1.762507e-05
2.850887e+00	6.737547e-08
2.856397e+00	4.811947e-11
2.861907e+00	0.000000e+00
2.867418e+00	0.000000e+00
2.872928e+00	0.000000e+00
2.878438e+00	2.118832e-41
2.883948e+00	5.456099e-38
2.889458e+00	1.525986e-10
2.894968e+00	2.135052e-07
2.900478e+00	5.581029e-05
2.905988e+00	2.725639e-03
2.911498e+00	2.486970e-02
2.917008e+00	4.239560e-02
2.922518e+00	1.350266e-02
2.928028e+00	8.034632e-04
2.933538e+00	8.932249e-06
2.939048e+00	1.855256e-08
2.944557e+00	7.199377e-12
2.950067e+00	0.000000e+00
2.955577e+00	0.000000e+00
2.961087e+00	0.000000e+00
2.966596e+00	0.000000e+00
2.972106e+00	0.000000e+00
2.977616e+00	0.000000e+00
2.983126e+00	0.000000e+00
2.988635e+00	0.000000e+00
2.994145e+00	0.000000e+00
2.999654e+00	0.000000e+00
3.005164e+00	0.000000e+00
3.010673e+00	0.000000e+00
3.016183e+00	0.000000e+00
3.021692e+00	0.000000e+00
3.027202e+00	0.000000e+00
3.032711e+00	0.000000e+00
3.038221e+00	0.000000e+00
3.043730e+00	0.000000e+00
3.049239e+00	0.000000e+00
3.054749e+00	0.000000e+00
3.060258e+00	0.000000e+00
3.065767e+00	0.000000e+00
3.071277e+00	0.000000e+00
3.076786e+00	0.000000e+00
3.082295e+00	0.000000e+00
3.087804e+00	0.000000e+00
3.093313e+00	0.000000e+00
3.098823e+00	0.000000e+00
3.104332e+00	0.000000e+00
3.109841e+00	0.000000e+00
3.115350e+00	0.000000e+00
3.120859e+00	0.000000e+00
3.126368e+00	0.000000e+00
3.131877e+00	0.000000e+00
3.137386e+00	5.237550e-11
3.142895e+00	1.157929e-07
3.148404e+00	4.782816e-05
3.153912e+00	3.690912e-03
3.159421e+00	5.321472e-02
3.164930e+00	1.433435e-01
3.170439e+00	7.214144e-02
3.175948e+00	7.118560e-03
3.181456e+00	1.049353e-02
3.186965e+00	5.990608e-02
3.192474e+00	6.462826e-02
3.197982e+00	1.302642e-02
3.203491e+00	4.905415e-04
3.209000e+00	3.451235e-06
3.214508e+00	4.536507e-09
3.220017e+00	1.114081e-12
3.225525e+00	0.000000e+00
3.231034e+00	0.000000e+00
3.236542e+00	0.000000e+00
3.242051e+00	0.000000e+00
3.247559e+00	0.000000e+00
3.253068e+00	0.000000e+00
3.258576e+00	0.000000e+00
3.264084e+00	8.325789e-41
3.269593e+00	1.326161e-37
3.275101e+00	4.038512e-35
3.280609e+00	2.351239e-33
3.286117e+00	2.614408e-32
3.291626e+00	5.541575e-32
3.297134e+00	2.233653e-32
3.302642e+00	1.707479e-33
3.308150e+00	2.468885e-35
3.313658e+00	6.735914e-38
3.319166e+00	3.460401e-41
3.324674e+00	0.000000e+00
3.330182e+00	2.953756e-11
3.335690e+00	3.046270e-08
3.341198e+00	5.869623e-06
3.346706e+00	2.113004e-04
3.352214e+00	1.421145e-03
3.357722e+00	1.785767e-03
3.363230e+00	4.192370e-04
3.368737e+00	1.865724e-05
3.374245e+00	6.050351e-05
3.379753e+00	2.530578e-03
3.385261e+00	1.982394e-02
3.390768e+00	2.901404e-02
3.396276e+00	7.933681e-03
3.401784e+00	4.053120e-04
3.407291e+00	3.868586e-06
3.412799e+00	6.898636e-09
3.418307e+00	2.298383e-12
3.423814e+00	0.000000e+00
3.429322e+00	0.000000e+00
3.434829e+00	0.000000e+00
3.440337e+00	0.000000e+00
3.445844e+00	0.000000e+00
3.451351e+00	0.000000e+00
3.456859e+00	0.000000e+00
3.462366e+00	0.000000e+00
3.467873e+00	0.000000e+00
3.473381e+00	0.000000e+00
3.478888e+00	0.000000e+00
3.484395e+00	0.000000e+00
3.489902e+00	0.000000e+00
3.495410e+00	1.301194e-11
3.500917e+00	1.820539e-08
3.506424e+00	4.758891e-06
3.511931e+00	2.324127e-04
3.517438e+00	2.120617e-03
3.522945e+00	3.616854e-03
3.528452e+00	1.627244e-03
3.533959e+00	2.330955e-02
3.539466e+00	2.120602e-01
3.544973e+00	3.614998e-01
3.550480e+00	1.151348e-01
3.555986e+00	6.850988e-03
3.561493e+00	7.616369e-05
3.567000e+00	1.581944e-07
3.572507e+00	6.138780e-11
3.578014e+00	0.000000e+00
3.583520e+00	2.353791e-13
3.589027e+00	8.222758e-10
3.594534e+00	5.366799e-07
3.600040e+00	6.544271e-05
3.605547e+00	1.490924e-03
3.611053e+00	6.346012e-03
3.616560e+00	5.073324e-03
3.622066e+00	3.560763e-03
3.627573e+00	5.500303e-02
3.633079e+00	2.009244e-01
3.638586e+00	1.371800e-01
3.644092e+00	1.749837e-02
3.649598e+00	4.170156e-04
3.655105e+00	1.856757e-06
3.660611e+00	1.544565e-09
3.666117e+00	0.000000e+00
3.671623e+00	0.000000e+00
3.677129e+00	0.000000e+00
3.682636e+00	0.000000e+00
3.688142e+00	0.000000e+00
3.693648e+00	0.000000e+00
3.699154e+00	0.000000e+00
3.704660e+00	0.000000e+00
3.710166e+00	0.000000e+00
3.715672e+00	0.000000e+00
3.721178e+00	0.000000e+00
3.726684e+00	0.000000e+00
3.732190e+00	4.769198e-40
3.737696e+00	4.918573e-37
3.743201e+00	9.477221e-35
3.748707e+00	3.411702e-33
3.754213e+00	2.294612e-32
3.759719e+00	2.883339e-32
3.765224e+00	6.769089e-33
3.770730e+00	2.969018e-34
3.776236e+00	2.433009e-36
3.781741e+00	3.724970e-39
3.787247e+00	2.997715e-12
3.792752e+00	5.689997e-09
3.798258e+00	2.017817e-06
3.803763e+00	1.336903e-04
3.809269e+00	1.654878e-03
3.814774e+00	3.827236e-03
3.820280e+00	1.674542e-03
3.825785e+00	2.011650e-03
3.831290e+00	3.154206e-02
3.836796e+00	9.895565e-02
3.842301e+00	5.800521e-02
3.847806e+00	6.352455e-03
3.853311e+00	1.299764e-04
3.858816e+00	4.968615e-07
3.864321e+00	3.548578e-10
3.869827e+00	0.000000e+00
3.875332e+00	0.000000e+00
3.880837e+00	0.000000e+00
3.886342e+00	0.000000e+00
3.891847e+00	0.000000e+00
3.897352e+00	4.431309e-39
3.902856e+00	4.570101e-36
3.908361e+00	8.805777e-34
3.913866e+00	3.169989e-32
3.919371e+00	2.132043e-31
3.924876e+00	1.322620e-10
3.930380e+00	1.364046e-07
3.935885e+00	2.628276e-05
3.941390e+00	9.461521e-04
3.946895e+00	6.363546e-03
3.952399e+00	7.996235e-03
3.957904e+00	1.877244e-03
3.963408e+00	8.426615e-05
3.968913e+00	2.357366e-04
3.974417e+00	5.355209e-03
3.979922e+00	2.279390e-02
3.985426e+00	1.812629e-02
3.990930e+00	2.693069e-03
3.996435e+00	7.475398e-05
4.001939e+00	3.876762e-07
4.007443e+00	3.756230e-10
4.012948e+00	0.000000e+00
4.018452e+00	0.000000e+00
4.023956e+00	0.000000e+00
4.029460e+00	0.000000e+00
4.034964e+00	0.000000e+00
4.040468e+00	0.000000e+00
4.045972e+00	0.000000e+00
4.051476e+00	0.000000e+00
4.056980e+00	0.000000e+00
4.062484e+00	0.000000e+00
4.067988e+00	0.000000e+00
4.073492e+00	0.000000e+00
4.078996e+00	0.000000e+00
4.084500e+00	0.000000e+00
4.090004e+00	8.857697e-11
4.095507e+00	1.958279e-07
4.101011e+00	8.088656e-05
4.106515e+00	6.242037e-03
4.112018e+00	8.999627e-02
4.117522e+00	2.424220e-01
4.123026e+00	1.221005e-01
4.128529e+00	1.409758e-02
4.134033e+00	1.328604e-02
4.139536e+00	1.270211e-02
4.145040e+00	3.190229e-03
4.150543e+00	4.191665e-04
4.156046e+00	2.133661e-05
4.161550e+00	2.331341e-07
4.167053e+00	4.832720e-10
4.172556e+00	1.875352e-13
4.178059e+00	0.000000e+00
4.183563e+00	0.000000e+00
4.189066e+00	1.361545e-10
4.194569e+00	1.404189e-07
4.200072e+00	2.705625e-05
4.205575e+00	9.739970e-04
4.211078e+00	6.550823e-03
4.216581e+00	8.231562e-03
4.222084e+00	1.932511e-03
4.227587e+00	9.608446e-05
4.233090e+00	1.018433e-03
4.238593e+00	1.709095e-02
4.244096e+00	5.362228e-02
4.249598e+00	3.147413e-02
4.255101e+00	6.699745e-03
4.260604e+00	4.703590e-02
4.266106e+00	1.265103e-01
4.271609e+00	6.366774e-02
4.277112e+00	5.986349e-03
4.282614e+00	1.051605e-04
4.288117e+00	3.451372e-07
4.293619e+00	2.502802e-10
4.299122e+00	7.336082e-08
4.304624e+00	2.601561e-05
4.310127e+00	1.723662e-03
4.315629e+00	2.133626e-02
4.321131e+00	4.934379e-02
4.326634e+00	2.132038e-02
4.332136e+00	1.721098e-03
4.337638e+00	2.595759e-05
4.343140e+00	7.320104e-08
4.348642e+00	1.288776e-07
4.354144e+00	5.321688e-05
4.359646e+00	4.106761e-03
4.365148e+00	5.921034e-02
4.370650e+00	1.594938e-01
4.376152e+00	8.026724e-02
4.381654e+00	7.547114e-03
4.387156e+00	1.325781e-04
4.392658e+00	4.351216e-07
4.398160e+00	2.668073e-10
4.403662e+00	0.000000e+00
4.409163e+00	0.000000e+00
4.414665e+00	0.000000e+00
4.420167e+00	2.246737e-41
4.425668e+00	3.143475e-38
4.431170e+00	8.217050e-36
4.436672e+00	2.920738e-13
4.442173e+00	7.521047e-10
4.447675e+00	3.618363e-07
4.453176e+00	3.252326e-05
4.458677e+00	5.461654e-04
4.464179e+00	1.713575e-03
4.469680e+00	1.006729e-03
4.475181e+00	5.498078e-04
4.480683e+00	1.600477e-02
4.486184e+00	1.137478e-01
4.491685e+00	1.840896e-01
4.497186e+00	9.493536e-02
4.502687e+00	1.631617e-02
4.508188e+00	1.051557e-03
4.513690e+00	2.597452e-03
4.519191e+00	3.257122e-03
4.524691e+00	7.646583e-04
4.530192e+00	3.353900e-05
4.535693e+00	2.748406e-07
4.541194e+00	4.207847e-10
4.546695e+00	1.203614e-13
4.552196e+00	0.000000e+00
4.557696e+00	0.000000e+00
4.563197e+00	1.526280e-10
4.568698e+00	1.574084e-07
4.574198e+00	3.032982e-05
4.579699e+00	1.091842e-03
4.585200e+00	7.343416e-03
4.590700e+00	9.227510e-03
4.596201e+00	2.166302e-03
4.601701e+00	9.501709e-05
4.607201e+00	7.786326e-07
4.612702e+00	1.405831e-09
4.618202e+00	1.892501e-07
4.623702e+00	3.130727e-05
4.629203e+00	9.676165e-04
4.634703e+00	5.587401e-03
4.640203e+00	6.028700e-03
4.645703e+00	1.244948e-03
4.651203e+00	4.303205e-04
4.656703e+00	2.344854e-03
4.662203e+00	3.781350e-03
4.667703e+00	2.138791e-03
4.673203e+00	8.734209e-03
4.678703e+00	1.476954e-02
4.684203e+00	4.703732e-03
4.689703e+00	2.798911e-04
4.695203e+00	3.111601e-06
4.700702e+00	6.462891e-09
4.706202e+00	2.507945e-12
4.711702e+00	4.987198e-34
4.717201e+00	1.020421e-35
4.722701e+00	1.297879e-12
4.728201e+00	3.342103e-09
4.733700e+00	1.607880e-06
4.739199e+00	1.445225e-04
4.744699e+00	2.426977e-03
4.750198e+00	7.614547e-03
4.755698e+00	4.464131e-03
4.761197e+00	6.203263e-04
4.766696e+00	4.744250e-03
4.772195e+00	3.184122e-02
4.777695e+00	4.001065e-02
4.783194e+00	9.393126e-03
4.788693e+00	4.119958e-04
4.794192e+00	3.376165e-06
4.799691e+00	5.168954e-09
4.805190e+00	1.478529e-12
4.810689e+00	0.000000e+00
4.816188e+00	0.000000e+00
4.821687e+00	0.000000e+00
4.827186e+00	0.000000e+00
4.832684e+00	0.000000e+00
4.838183e+00	6.480178e-11
4.843682e+00	1.230010e-07
4.849181e+00	4.361928e-05
4.854679e+00	2.889991e-03
4.860178e+00	3.577360e-02
4.865676e+00	8.273265e-02
4.871175e+00	3.574698e-02
4.876673e+00	2.885692e-03
4.882172e+00	4.352200e-05
4.887670e+00	1.226354e-07
4.893169e+00	6.456109e-11
4.898667e+00	0.000000e+00
4.904165e+00	0.000000e+00
4.909663e+00	0.000000e+00
4.915162e+00	0.000000e+00
4.920660e+00	2.215975e-11
4.926158e+00	3.611225e-08
4.931656e+00	1.099493e-05
4.937154e+00	6.254296e-04
4.942652e+00	6.646799e-03
4.948150e+00	1.319760e-02
4.953648e+00	4.895820e-03
4.959146e+00	3.393158e-04
4.964644e+00	4.393706e-06
4.970141e+00	1.302528e-08
4.975639e+00	9.302399e-07
4.981137e+00	9.159617e-05
4.986634e+00	2.365930e-03
4.992132e+00	1.406474e-02
4.997630e+00	1.715859e-02
5.003127e+00	7.577339e-03
5.008625e+00	1.650977e-02
5.014122e+00	1.819890e-02
5.019620e+00	5.364404e-03
5.025117e+00	3.735043e-04
5.030614e+00	5.392542e-06
5.036112e+00	1.011585e-05
5.041609e+00	7.802044e-04
5.047106e+00	1.134987e-02
5.052603e+00	3.325469e-02
5.058100e+00	3.003094e-02
5.063597e+00	1.513808e-02
5.069094e+00	2.396933e-03
5.074591e+00	7.676423e-05
5.080088e+00	4.632397e-07
5.085585e+00	5.227251e-10
5.091082e+00	2.768326e-13
5.096579e+00	8.302997e-10
5.102076e+00	4.652653e-07
5.107572e+00	4.870961e-05
5.113069e+00	9.527452e-04
5.118566e+00	3.481677e-03
5.124062e+00	2.381740e-03
5.129559e+00	6.621185e-04
5.135056e+00	5.181801e-03
5.140552e+00	1.393869e-02
5.146049e+00	7.014815e-03
5.151545e+00	6.639375e-04
5.157041e+00	3.012369e-04
5.162538e+00	3.585511e-03
5.168034e+00	8.297219e-03
5.173530e+00	3.686593e-03
5.179026e+00	6.686800e-04
5.184522e+00	2.634367e-04
5.190019e+00	3.305925e-05
5.195515e+00	7.875712e-07
5.201011e+00	3.506705e-09
5.206507e+00	2.865909e-10
5.212003e+00	1.851472e-07
5.217498e+00	2.257683e-05
5.222994e+00	5.143500e-04
5.228490e+00	2.190071e-03
5.233986e+00	1.802734e-03
5.239482e+00	1.149251e-03
5.244977e+00	2.406169e-03
5.250473e+00	1.214224e-03
5.255968e+00	5.690385e-04
5.261464e+00	5.640639e-03
5.266959e+00	1.304035e-02
5.272455e+00	5.634450e-03
5.277950e+00	4.548437e-04
5.283446e+00	6.859950e-06
5.288941e+00	1.932982e-08
5.294436e+00	1.017614e-11
5.299932e+00	1.741396e-11
5.305427e+00	3.305363e-08
5.310922e+00	1.172166e-05
5.316417e+00	7.766171e-04
5.321912e+00	9.613314e-03
5.327407e+00	2.223246e-02
5.332902e+00	9.606162e-03
5.338397e+00	7.754621e-04
5.343892e+00	1.169551e-05
5.349387e+00	3.295538e-08
5.354882e+00	1.734928e-11
5.360376e+00	4.449024e-12
5.365871e+00	3.939367e-09
5.371366e+00	6.516830e-07
5.376860e+00	2.014162e-05
5.382355e+00	1.163056e-04
5.387849e+00	1.254745e-04
5.393344e+00	2.544281e-05
5.398838e+00	3.513118e-05
5.404333e+00	1.433115e-03
5.409827e+00	1.122663e-02
5.415321e+00	1.643428e-02
5.420816e+00	4.735740e-03
5.426310e+00	3.729656e-03
5.431804e+00	9.430539e-03
5.437298e+00	4.775283e-03
5.442792e+00	1.721417e-03
5.448286e+00	9.998088e-03
5.453780e+00	1.462162e-02
5.459274e+00	3.998171e-03
5.464768e+00	2.045333e-04
5.470262e+00	6.406285e-05
5.475756e+00	2.604396e-03
5.481250e+00	2.040219e-02
5.486743e+00	2.986036e-02
5.492237e+00	8.165101e-03
5.497731e+00	4.171346e-04
5.503224e+00	3.981430e-06
5.508718e+00	7.361305e-09
5.514211e+00	1.706385e-07
5.519705e+00	2.080736e-05
5.525198e+00	4.740356e-04
5.530691e+00	2.017684e-03
5.536185e+00	1.604515e-03
5.541678e+00	2.383868e-04
5.547171e+00	6.617119e-06
5.552664e+00	3.431657e-08
5.558158e+00	3.324964e-11
5.563651e+00	0.000000e+00
5.569144e+00	0.000000e+00
5.574637e+00	1.073298e-11
5.580130e+00	2.641329e-08
5.585622e+00	1.217818e-05
5.591115e+00	1.149588e-03
5.596608e+00	2.305862e-02
5.602101e+00	9.955451e-02
5.607594e+00	9.049563e-02
5.613086e+00	1.665054e-02
5.618579e+00	5.990908e-04
5.624071e+00	4.123289e-06
5.629564e+00	5.363695e-09
5.635056e+00	3.964066e-10
5.640549e+00	3.507234e-07
5.646041e+00	5.838420e-05
5.651534e+00	1.832622e-03
5.657026e+00	1.098794e-02
5.662518e+00	1.294708e-02
5.668010e+00	3.198092e-03
5.673502e+00	1.560246e-03
5.678995e+00	9.347894e-03
5.684487e+00	1.174363e-02
5.689979e+00	2.757000e-03
5.695471e+00	1.209259e-04
5.700963e+00	9.935107e-07
5.706454e+00	1.060635e-06
5.711946e+00	8.173241e-05
5.717438e+00	1.178399e-03
5.722930e+00	3.174233e-03
5.728421e+00	1.597472e-03
5.733913e+00	1.502020e-04
5.739405e+00	2.638558e-06
5.744896e+00	8.659754e-09
5.750388e+00	5.309977e-12
5.755879e+00	0.000000e+00
5.761371e+00	0.000000e+00
5.766862e+00	3.976021e-11
5.772353e+00	4.776111e-08
5.777844e+00	1.071885e-05
5.783336e+00	4.494386e-04
5.788827e+00	3.520793e-03
5.794318e+00	5.153030e-03
5.799809e+00	1.419150e-03
5.805300e+00	5.083731e-04
5.810791e+00	3.814226e-03
5.816282e+00	7.871620e-03
5.821773e+00	5.188245e-03
5.827264e+00	7.936782e-03
5.832754e+00	2.147323e-02
5.838245e+00	1.693370e-02
5.843736e+00	3.558163e-03
5.849226e+00	3.579403e-03
5.854717e+00	7.967169e-03
5.860207e+00	3.441975e-03
5.865698e+00	2.778549e-04
5.871188e+00	4.190606e-06
5.876679e+00	1.180820e-08
5.882169e+00	6.216399e-12
5.887659e+00	0.000000e+00
5.893150e+00	0.000000e+00
5.898640e+00	7.214185e-43
5.904130e+00	1.175647e-39
5.909620e+00	3.579438e-37
5.915110e+00	3.130191e-12
5.920600e+00	7.139160e-09
5.926090e+00	3.121741e-06
5.931580e+00	2.798266e-04
5.937070e+00	5.673973e-03
5.942560e+00	2.822076e-02
5.948049e+00	3.335281e-02
5.953539e+00	8.465907e-03
5.959029e+00	4.285487e-04
5.964518e+00	4.191093e-06
5.970008e+00	8.255752e-09
5.975497e+00	3.540754e-07
5.980987e+00	5.857364e-05
5.986476e+00	1.810341e-03
5.991966e+00	1.045362e-02
5.997455e+00	1.127780e-02
6.002944e+00	2.299404e-03
6.008433e+00	1.580372e-03
6.013922e+00	1.588641e-02
6.019412e+00	3.154217e-02
6.024901e+00	1.170097e-02
6.030390e+00	8.114918e-04
6.035879e+00	7.507735e-05
6.041368e+00	1.471801e-03
6.046856e+00	6.289112e-03
6.052345e+00	5.194359e-03
6.057834e+00	1.054350e-03
6.063323e+00	1.065444e-04
6.068811e+00	4.500475e-06
6.074300e+00	4.204243e-08
6.079788e+00	7.478795e-11
6.085277e+00	2.491671e-14
6.090765e+00	0.000000e+00
6.096254e+00	0.000000e+00
6.101742e+00	0.000000e+00
6.107230e+00	0.000000e+00
6.112719e+00	0.000000e+00
6.118207e+00	0.000000e+00
6.123695e+00	0.000000e+00
6.129183e+00	0.000000e+00
6.134671e+00	0.000000e+00
6.140159e+00	0.000000e+00
6.145647e+00	0.000000e+00
6.151135e+00	0.000000e+00
6.156623e+00	0.000000e+00
6.162111e+00	0.000000e+00
6.167598e+00	0.000000e+00
6.173086e+00	0.000000e+00
6.178574e+00	0.000000e+00
6.184061e+00	7.720006e-11
6.189549e+00	1.080128e-07
6.195036e+00	2.823457e-05
6.200524e+00	1.378908e-03
6.206011e+00	1.258165e-02
6.211499e+00	2.144805e-02
6.216986e+00	6.831032e-03
6.222473e+00	4.064742e-04
6.227960e+00	4.518848e-06
6.233447e+00	9.385788e-09
6.238935e+00	1.398072e-11
6.244422e+00	1.684802e-08
6.249909e+00	5.129639e-06
6.255395e+00	2.917916e-04
6.260882e+00	3.101037e-03
6.266369e+00	6.157286e-03
6.271856e+00	2.284125e-03
6.277343e+00	1.584477e-04
6.282829e+00	2.928454e-05
6.288316e+00	9.804252e-04
6.293802e+00	6.594023e-03
6.299289e+00	8.285852e-03
6.304775e+00	1.945953e-03
6.310262e+00	1.017965e-04
6.315748e+00	8.394192e-05
6.321234e+00	7.067065e-04
6.326721e+00	5.949225e-03
6.332207e+00	1.012785e-02
6.337693e+00	3.225567e-03
6.343179e+00	1.919901e-04
6.348665e+00	1.289936e-05
6.354151e+00	3.875548e-04
6.359637e+00	2.606587e-03
6.365123e+00	3.283377e-03
6.370609e+00	1.107101e-03
6.376095e+00	2.682869e-03
6.381580e+00	3.878842e-03
6.387066e+00	1.225996e-03
6.392552e+00	4.275401e-03
6.398037e+00	2.542701e-02
6.403523e+00	4.362924e-02
6.409008e+00	2.078138e-02
6.414494e+00	1.183728e-02
6.419979e+00	3.074078e-02
6.425464e+00	1.887301e-02
6.430949e+00	6.418167e-03
6.436435e+00	4.161660e-03
6.441920e+00	7.133573e-04
6.447405e+00	2.305887e-05
6.452890e+00	2.360777e-07
6.458375e+00	8.700421e-06
6.463860e+00	1.461042e-04
6.469345e+00	4.583960e-04
6.474829e+00	2.686998e-04
6.480314e+00	2.942672e-05
6.485799e+00	6.020945e-07
6.491284e+00	2.301630e-09
6.496768e+00	2.333821e-11
6.502253e+00	1.920920e-08
6.507737e+00	3.177787e-06
6.513222e+00	9.827233e-05
6.518706e+00	5.821517e-04
6.524190e+00	1.345412e-03
6.529675e+00	6.816694e-03
6.535159e+00	1.141511e-02
6.540643e+00	3.675333e-03
6.546127e+00	1.700339e-03
6.551611e+00	9.987289e-03
6.557095e+00	1.277675e-02
6.562579e+00	6.689165e-03
6.568063e+00	1.344464e-02
6.573547e+00	1.208548e-02
6.579031e+00	1.442374e-02
6.584515e+00	1.570946e-02
6.589998e+00	4.294855e-03
6.595482e+00	2.572130e-04
6.600965e+00	2.187348e-04
6.606449e+00	5.172434e-03
6.611932e+00	2.438434e-02
6.617416e+00	2.342854e-02
6.622899e+00	4.766744e-03
6.628382e+00	2.088383e-04
6.633866e+00	3.666000e-06
6.639349e+00	1.049664e-04
6.644832e+00	1.821358e-03
6.650315e+00	8.434939e-03
6.655798e+00	8.530505e-03
6.661281e+00	1.690313e-03
6.666764e+00	6.337520e-05
6.672247e+00	4.453851e-07
6.677730e+00	5.979136e-10
6.683212e+00	9.607709e-09
6.688695e+00	1.364636e-06
6.694178e+00	3.625006e-05
6.699660e+00	1.832059e-04
6.705143e+00	2.283354e-04
6.710625e+00	2.277344e-04
6.716108e+00	4.441475e-04
6.721590e+00	4.757263e-03
6.727072e+00	1.278113e-02
6.732555e+00	6.432576e-03
6.738037e+00	6.165724e-04
6.743519e+00	6.920466e-05
6.749001e+00	6.878183e-05
6.754483e+00	3.419513e-04
6.759965e+00	1.417042e-03
6.765447e+00	1.260163e-03
6.770929e+00	3.115507e-03
6.776411e+00	1.213471e-02
6.781892e+00	9.410431e-03
6.787374e+00	2.212114e-03
6.792856e+00	2.737005e-03
6.798337e+00	1.937349e-03
6.803819e+00	3.800180e-03
6.809300e+00	1.240396e-02
6.814782e+00	1.550700e-02
6.820263e+00	4.825701e-03
6.825744e+00	3.053826e-04
6.831226e+00	3.736712e-06
6.836707e+00	8.713650e-09
6.842188e+00	3.847749e-12
6.847669e+00	6.704257e-12
6.853150e+00	3.756786e-09
6.858631e+00	3.933059e-07
6.864112e+00	7.692944e-06
6.869593e+00	2.811424e-05
6.875074e+00	2.018890e-05
6.880554e+00	1.237887e-04
6.886035e+00	2.764573e-03
6.891516e+00	1.178387e-02
6.896996e+00	9.807138e-03
6.902477e+00	3.558030e-03
6.907957e+00	2.036271e-03
6.913437e+00	1.702410e-03
6.918918e+00	9.766151e-03
6.924398e+00	1.443857e-02
6.929878e+00	4.272871e-03
6.935358e+00	2.452130e-04
6.940839e+00	2.679195e-06
6.946319e+00	5.519347e-09
6.951799e+00	2.126387e-12
6.957279e+00	0.000000e+00
6.962758e+00	0.000000e+00
6.968238e+00	4.868596e-13
6.973718e+00	1.981004e-09
6.979198e+00	1.505966e-06
6.984677e+00	2.138913e-04
6.990157e+00	5.675696e-03
6.995636e+00	2.813801e-02
7.001116e+00	2.606337e-02
7.006595e+00	4.553499e-03
7.012075e+00	5.417895e-04
7.017554e+00	6.766073e-04
7.023033e+00	2.554271e-04
7.028512e+00	4.472289e-04
7.033992e+00	1.128306e-03
7.039471e+00	3.240832e-03
7.044950e+00	5.828500e-03
7.050429e+00	2.154306e-03
7.055907e+00	1.492943e-04
7.061386e+00	2.649089e-06
7.066865e+00	2.216561e-05
7.072344e+00	1.377017e-04
7.077822e+00	7.023655e-04
7.083301e+00	6.027207e-03
7.088780e+00	1.191324e-02
7.094258e+00	4.418990e-03
7.099736e+00	3.063412e-04
7.105215e+00	2.640345e-05
7.110693e+00	1.276349e-03
7.116171e+00	1.356789e-02
7.121649e+00	2.730647e-02
7.127128e+00	1.730117e-02
7.132606e+00	2.740665e-02
7.138084e+00	1.830942e-02
7.143562e+00	3.965501e-03
7.149040e+00	8.180977e-03
7.154517e+00	7.526421e-03
7.159995e+00	1.302402e-03
7.165473e+00	4.210790e-05
7.170950e+00	2.543492e-07
7.176428e+00	2.870420e-10
7.181906e+00	2.309896e-35
7.187383e+00	1.128097e-33
7.192861e+00	1.029316e-32
7.198338e+00	1.825417e-12
7.203815e+00	4.700540e-09
7.209292e+00	2.261422e-06
7.214770e+00	2.032654e-04
7.220247e+00	3.413451e-03
7.225724e+00	1.070957e-02
7.231201e+00	6.277669e-03
7.236678e+00	6.875005e-04
7.242155e+00	1.406682e-05
7.247631e+00	5.806676e-08
7.253108e+00	1.522611e-06
7.258585e+00	1.008779e-04
7.264061e+00	1.248711e-03
7.269538e+00	2.887862e-03
7.275015e+00	1.247782e-03
7.280491e+00	1.007288e-04
7.285967e+00	2.336214e-06
7.291444e+00	1.351655e-04
7.296920e+00	4.177480e-03
7.302396e+00	2.413700e-02
7.307872e+00	2.700689e-02
7.313348e+00	1.741478e-02
7.318825e+00	2.839968e-02
7.324300e+00	1.462714e-02
7.329776e+00	2.029690e-02
7.335252e+00	2.833078e-02
7.340728e+00	9.416134e-03
7.346204e+00	1.199309e-02
7.351679e+00	2.075562e-02
7.357155e+00	3.404301e-02
7.362631e+00	2.861102e-02
7.368106e+00	5.165415e-03
7.373582e+00	1.921865e-04
7.379057e+00	6.934766e-04
7.384532e+00	8.568978e-03
7.390007e+00	1.982456e-02
7.395483e+00	8.874048e-03
7.400958e+00	3.166354e-03
7.406433e+00	3.790722e-03
7.411908e+00	1.568491e-03
7.417383e+00	3.894573e-03
7.422858e+00	6.510131e-03
7.428332e+00	2.073051e-03
7.433807e+00	1.278602e-04
7.439282e+00	4.063972e-04
7.444756e+00	6.801632e-03
7.450231e+00	2.133984e-02
7.455706e+00	1.250886e-02
7.461180e+00	1.369911e-03
7.466654e+00	2.802948e-05
7.472129e+00	1.071485e-07
7.477603e+00	7.652529e-11
7.483077e+00	0.000000e+00
7.488551e+00	4.301978e-12
7.494025e+00	7.027511e-09
7.499499e+00	2.166513e-06
7.504973e+00	1.327711e-04
7.510447e+00	2.042596e-03
7.515921e+00	1.187343e-02
7.521395e+00	2.248466e-02
7.526869e+00	9.381963e-03
7.532342e+00	9.889402e-04
7.537816e+00	2.107872e-03
7.543289e+00	5.764170e-03
7.548763e+00	3.313103e-03
7.554236e+00	3.618471e-04
7.559709e+00	8.277056e-06
7.565183e+00	5.872041e-05
7.570656e+00	7.577072e-04
7.576129e+00	2.036916e-03
7.581602e+00	1.365246e-03
7.587075e+00	2.648632e-04
7.592548e+00	4.023165e-05
7.598021e+00	9.737304e-04
7.603494e+00	6.548106e-03
7.608967e+00	8.229576e-03
7.614439e+00	1.969987e-03
7.619912e+00	3.914982e-04
7.625384e+00	8.938967e-04
7.630857e+00	9.469923e-04
7.636329e+00	2.649735e-04
7.641802e+00	5.960972e-05
7.647274e+00	6.395749e-04
7.652746e+00	1.722385e-03
7.658219e+00	8.679622e-04
7.663691e+00	1.621423e-04
7.669163e+00	1.391707e-03
7.674635e+00	4.924921e-03
7.680107e+00	4.513961e-03
7.685579e+00	6.632498e-03
7.691050e+00	1.769622e-02
7.696522e+00	1.086239e-02
7.701994e+00	5.319150e-03
7.707465e+00	6.224387e-03
7.712937e+00	3.093610e-03
7.718409e+00	5.266222e-03
7.723880e+00	3.537849e-03
7.729351e+00	4.511799e-04
7.734823e+00	1.149191e-05
7.740294e+00	3.624637e-05
7.745765e+00	3.429710e-04
7.751236e+00	9.767889e-04
7.756707e+00	2.596791e-03
7.762178e+00	3.287912e-03
7.767649e+00	4.692764e-03
7.773120e+00	5.509669e-03
7.778591e+00	2.174173e-03
7.784061e+00	2.970261e-04
7.789532e+00	1.019202e-05
7.795003e+00	7.040103e-08
7.800473e+00	9.221865e-11
7.805944e+00	3.119276e-11
7.811414e+00	3.214656e-08
7.816884e+00	6.194543e-06
7.822355e+00	2.232609e-04
7.827825e+00	1.530158e-03
7.833295e+00	2.581264e-03
7.838765e+00	4.962862e-03
7.844235e+00	1.031985e-02
7.849705e+00	6.239467e-03
7.855175e+00	7.770977e-04
7.860645e+00	4.472768e-05
7.866115e+00	9.934428e-04
7.871584e+00	7.047306e-03
7.877054e+00	9.391464e-03
7.882523e+00	2.351756e-03
7.887993e+00	1.511792e-04
7.893462e+00	7.942545e-04
7.898932e+00	2.898912e-03
7.904401e+00	1.979216e-03
7.909870e+00	2.524642e-04
7.915339e+00	6.016648e-06
7.915837e+00	3.941819e-06