File: cif_pxrd_calculator/example/txt/iq/li0.5tio2_li2fev3o8_180011.txt
# Q [Å^-1]	I_scaled [a.u.]
0.000000e+00	0.000000e+00
5.516321e-03	0.000000e+00
1.103264e-02	0.000000e+00
1.654896e-02	0.000000e+00
2.206528e-02	0.000000e+00
2.758161e-02	0.000000e+00
3.309793e-02	0.000000e+00
3.861425e-02	0.000000e+00
4.413057e-02	0.000000e+00
4.964689e-02	0.000000e+00
5.516321e-02	0.000000e+00
6.067952e-02	0.000000e+00
6.619584e-02	0.000000e+00
7.171216e-02	0.000000e+00
7.722848e-02	0.000000e+00
8.274479e-02	0.000000e+00
8.826111e-02	0.000000e+00
9.377742e-02	0.000000e+00
9.929374e-02	0.000000e+00
1.048101e-01	0.000000e+00
1.103264e-01	0.000000e+00
1.158427e-01	0.000000e+00
1.213590e-01	0.000000e+00
1.268753e-01	0.000000e+00
1.323916e-01	0.000000e+00
1.379079e-01	0.000000e+00
1.434242e-01	0.000000e+00
1.489405e-01	0.000000e+00
1.544568e-01	0.000000e+00
1.599731e-01	0.000000e+00
1.654894e-01	0.000000e+00
1.710057e-01	0.000000e+00
1.765220e-01	0.000000e+00
1.820383e-01	0.000000e+00
1.875546e-01	0.000000e+00
1.930709e-01	0.000000e+00
1.985872e-01	0.000000e+00
2.041035e-01	0.000000e+00
2.096198e-01	0.000000e+00
2.151361e-01	0.000000e+00
2.206524e-01	0.000000e+00
2.261686e-01	0.000000e+00
2.316849e-01	0.000000e+00
2.372012e-01	0.000000e+00
2.427175e-01	0.000000e+00
2.482338e-01	0.000000e+00
2.537500e-01	0.000000e+00
2.592663e-01	0.000000e+00
2.647826e-01	0.000000e+00
2.702988e-01	0.000000e+00
2.758151e-01	0.000000e+00
2.813314e-01	0.000000e+00
2.868476e-01	0.000000e+00
2.923639e-01	0.000000e+00
2.978802e-01	0.000000e+00
3.033964e-01	0.000000e+00
3.089127e-01	0.000000e+00
3.144289e-01	0.000000e+00
3.199452e-01	0.000000e+00
3.254614e-01	0.000000e+00
3.309776e-01	0.000000e+00
3.364939e-01	0.000000e+00
3.420101e-01	0.000000e+00
3.475263e-01	0.000000e+00
3.530426e-01	0.000000e+00
3.585588e-01	0.000000e+00
3.640750e-01	0.000000e+00
3.695912e-01	0.000000e+00
3.751075e-01	0.000000e+00
3.806237e-01	0.000000e+00
3.861399e-01	0.000000e+00
3.916561e-01	0.000000e+00
3.971723e-01	0.000000e+00
4.026885e-01	0.000000e+00
4.082047e-01	0.000000e+00
4.137209e-01	0.000000e+00
4.192371e-01	0.000000e+00
4.247533e-01	0.000000e+00
4.302695e-01	0.000000e+00
4.357856e-01	0.000000e+00
4.413018e-01	0.000000e+00
4.468180e-01	0.000000e+00
4.523342e-01	0.000000e+00
4.578503e-01	0.000000e+00
4.633665e-01	0.000000e+00
4.688826e-01	0.000000e+00
4.743988e-01	0.000000e+00
4.799149e-01	0.000000e+00
4.854311e-01	0.000000e+00
4.909472e-01	0.000000e+00
4.964634e-01	0.000000e+00
5.019795e-01	1.608672e-39
5.074956e-01	3.053438e-36
5.130118e-01	1.082827e-33
5.185279e-01	7.174257e-32
5.240440e-01	8.880616e-31
5.295601e-01	2.053797e-30
5.350762e-01	8.874010e-31
5.405923e-01	7.163587e-32
5.461084e-01	1.080412e-33
5.516245e-01	3.044362e-36
5.571406e-01	1.602697e-39
5.626567e-01	0.000000e+00
5.681728e-01	0.000000e+00
5.736889e-01	0.000000e+00
5.792049e-01	0.000000e+00
5.847210e-01	0.000000e+00
5.902371e-01	0.000000e+00
5.957531e-01	0.000000e+00
6.012692e-01	0.000000e+00
6.067852e-01	0.000000e+00
6.123013e-01	0.000000e+00
6.178173e-01	0.000000e+00
6.233333e-01	0.000000e+00
6.288494e-01	0.000000e+00
6.343654e-01	0.000000e+00
6.398814e-01	0.000000e+00
6.453974e-01	0.000000e+00
6.509134e-01	0.000000e+00
6.564294e-01	0.000000e+00
6.619454e-01	0.000000e+00
6.674614e-01	0.000000e+00
6.729774e-01	0.000000e+00
6.784934e-01	0.000000e+00
6.840093e-01	0.000000e+00
6.895253e-01	0.000000e+00
6.950413e-01	0.000000e+00
7.005572e-01	0.000000e+00
7.060732e-01	0.000000e+00
7.115891e-01	0.000000e+00
7.171051e-01	0.000000e+00
7.226210e-01	0.000000e+00
7.281369e-01	0.000000e+00
7.336528e-01	0.000000e+00
7.391688e-01	0.000000e+00
7.446847e-01	0.000000e+00
7.502006e-01	0.000000e+00
7.557165e-01	0.000000e+00
7.612323e-01	0.000000e+00
7.667482e-01	0.000000e+00
7.722641e-01	0.000000e+00
7.777800e-01	0.000000e+00
7.832958e-01	0.000000e+00
7.888117e-01	0.000000e+00
7.943276e-01	0.000000e+00
7.998434e-01	0.000000e+00
8.053592e-01	0.000000e+00
8.108751e-01	0.000000e+00
8.163909e-01	0.000000e+00
8.219067e-01	0.000000e+00
8.274225e-01	0.000000e+00
8.329383e-01	0.000000e+00
8.384541e-01	0.000000e+00
8.439699e-01	0.000000e+00
8.494857e-01	0.000000e+00
8.550015e-01	0.000000e+00
8.605172e-01	0.000000e+00
8.660330e-01	0.000000e+00
8.715488e-01	0.000000e+00
8.770645e-01	0.000000e+00
8.825803e-01	0.000000e+00
8.880960e-01	0.000000e+00
8.936117e-01	0.000000e+00
8.991274e-01	0.000000e+00
9.046431e-01	0.000000e+00
9.101588e-01	0.000000e+00
9.156745e-01	0.000000e+00
9.211902e-01	0.000000e+00
9.267059e-01	0.000000e+00
9.322216e-01	0.000000e+00
9.377373e-01	0.000000e+00
9.432529e-01	0.000000e+00
9.487686e-01	0.000000e+00
9.542842e-01	0.000000e+00
9.597998e-01	0.000000e+00
9.653155e-01	0.000000e+00
9.708311e-01	9.696961e-41
9.763467e-01	1.164827e-37
9.818623e-01	2.614179e-35
9.873779e-01	1.096118e-33
9.928935e-01	7.247639e-11
9.984091e-01	2.173773e-07
1.003925e+00	1.218092e-04
1.009440e+00	1.275246e-02
1.014956e+00	2.494342e-01
1.020471e+00	9.115203e-01
1.025987e+00	6.223358e-01
1.031502e+00	7.938371e-02
1.037018e+00	1.892034e-03
1.042533e+00	8.549226e-05
1.048049e+00	5.947429e-03
1.053564e+00	8.574857e-02
1.059080e+00	2.309794e-01
1.064595e+00	1.162432e-01
1.070111e+00	1.092975e-02
1.075626e+00	1.919999e-04
1.081142e+00	6.301443e-07
1.086657e+00	3.863911e-10
1.092173e+00	0.000000e+00
1.097688e+00	0.000000e+00
1.103203e+00	0.000000e+00
1.108719e+00	0.000000e+00
1.114234e+00	0.000000e+00
1.119750e+00	0.000000e+00
1.125265e+00	0.000000e+00
1.130780e+00	0.000000e+00
1.136296e+00	0.000000e+00
1.141811e+00	0.000000e+00
1.147326e+00	0.000000e+00
1.152842e+00	0.000000e+00
1.158357e+00	0.000000e+00
1.163872e+00	0.000000e+00
1.169388e+00	0.000000e+00
1.174903e+00	0.000000e+00
1.180418e+00	0.000000e+00
1.185933e+00	0.000000e+00
1.191449e+00	0.000000e+00
1.196964e+00	7.422839e-13
1.202479e+00	3.020311e-09
1.207994e+00	2.296050e-06
1.213510e+00	3.261064e-04
1.219025e+00	8.653373e-03
1.224540e+00	4.290024e-02
1.230055e+00	3.973581e-02
1.235570e+00	6.876266e-03
1.241086e+00	2.223163e-04
1.246601e+00	1.342883e-06
1.252116e+00	1.515491e-09
1.257631e+00	8.897642e-42
1.263146e+00	2.668656e-38
1.268661e+00	1.495403e-35
1.274176e+00	1.565569e-33
1.279692e+00	3.062206e-32
1.285207e+00	1.119038e-31
1.290722e+00	7.640173e-32
1.296237e+00	9.745627e-33
1.301752e+00	2.322547e-34
1.307267e+00	1.034112e-36
1.312782e+00	8.602377e-40
1.318297e+00	0.000000e+00
1.323812e+00	0.000000e+00
1.329327e+00	0.000000e+00
1.334842e+00	0.000000e+00
1.340357e+00	0.000000e+00
1.345872e+00	0.000000e+00
1.351387e+00	0.000000e+00
1.356902e+00	0.000000e+00
1.362417e+00	0.000000e+00
1.367932e+00	0.000000e+00
1.373447e+00	0.000000e+00
1.378961e+00	0.000000e+00
1.384476e+00	0.000000e+00
1.389991e+00	0.000000e+00
1.395506e+00	0.000000e+00
1.401021e+00	0.000000e+00
1.406536e+00	0.000000e+00
1.412051e+00	0.000000e+00
1.417565e+00	0.000000e+00
1.423080e+00	0.000000e+00
1.428595e+00	0.000000e+00
1.434110e+00	0.000000e+00
1.439625e+00	0.000000e+00
1.445139e+00	0.000000e+00
1.450654e+00	0.000000e+00
1.456169e+00	0.000000e+00
1.461684e+00	0.000000e+00
1.467198e+00	0.000000e+00
1.472713e+00	0.000000e+00
1.478228e+00	0.000000e+00
1.483742e+00	0.000000e+00
1.489257e+00	0.000000e+00
1.494772e+00	0.000000e+00
1.500286e+00	0.000000e+00
1.505801e+00	0.000000e+00
1.511316e+00	0.000000e+00
1.516830e+00	0.000000e+00
1.522345e+00	0.000000e+00
1.527859e+00	0.000000e+00
1.533374e+00	0.000000e+00
1.538888e+00	0.000000e+00
1.544403e+00	0.000000e+00
1.549918e+00	0.000000e+00
1.555432e+00	0.000000e+00
1.560947e+00	2.437903e-41
1.566461e+00	6.277723e-38
1.571975e+00	3.020202e-35
1.577490e+00	2.714676e-33
1.583004e+00	4.558780e-32
1.588519e+00	1.430568e-31
1.594033e+00	8.627031e-32
1.599548e+00	4.998913e-32
1.605062e+00	1.282193e-31
1.610576e+00	7.504940e-32
1.616091e+00	8.218975e-33
1.621605e+00	1.681677e-34
1.627120e+00	1.303113e-36
1.632634e+00	9.377673e-35
1.638148e+00	2.488394e-33
1.643662e+00	1.233654e-32
1.649177e+00	1.142657e-32
1.654691e+00	2.298379e-11
1.660205e+00	3.745513e-08
1.665720e+00	1.140379e-05
1.671234e+00	6.486869e-04
1.676748e+00	6.893969e-03
1.682262e+00	1.368837e-02
1.687776e+00	5.077877e-03
1.693291e+00	3.519336e-04
1.698805e+00	4.557090e-06
1.704319e+00	4.083532e-08
1.709833e+00	2.639577e-05
1.715347e+00	4.366608e-03
1.720861e+00	1.349591e-01
1.726375e+00	7.793069e-01
1.731889e+00	8.407423e-01
1.737403e+00	1.694593e-01
1.742918e+00	6.381403e-03
1.748432e+00	4.489676e-05
1.753946e+00	5.901495e-08
1.759460e+00	1.449296e-11
1.764974e+00	0.000000e+00
1.770488e+00	0.000000e+00
1.776002e+00	0.000000e+00
1.781515e+00	0.000000e+00
1.787029e+00	0.000000e+00
1.792543e+00	0.000000e+00
1.798057e+00	0.000000e+00
1.803571e+00	0.000000e+00
1.809085e+00	0.000000e+00
1.814599e+00	0.000000e+00
1.820113e+00	0.000000e+00
1.825627e+00	0.000000e+00
1.831140e+00	0.000000e+00
1.836654e+00	0.000000e+00
1.842168e+00	0.000000e+00
1.847682e+00	0.000000e+00
1.853195e+00	0.000000e+00
1.858709e+00	0.000000e+00
1.864223e+00	0.000000e+00
1.869737e+00	0.000000e+00
1.875250e+00	0.000000e+00
1.880764e+00	0.000000e+00
1.886278e+00	0.000000e+00
1.891791e+00	0.000000e+00
1.897305e+00	5.454972e-13
1.902819e+00	8.889600e-10
1.908332e+00	2.706575e-07
1.913846e+00	1.539594e-05
1.919359e+00	1.636215e-04
1.924873e+00	3.248797e-04
1.930386e+00	1.205183e-04
1.935900e+00	8.352794e-06
1.941413e+00	1.081580e-07
1.946927e+00	2.616577e-10
1.952440e+00	1.182651e-13
1.957954e+00	2.684954e-31
1.963467e+00	9.935337e-32
1.968981e+00	5.826967e-10
1.974494e+00	6.009472e-07
1.980007e+00	1.157919e-04
1.985521e+00	4.168389e-03
1.991034e+00	2.803538e-02
1.996547e+00	3.522840e-02
2.002061e+00	8.270417e-03
2.007574e+00	3.627522e-04
2.013087e+00	2.972631e-06
2.018601e+00	1.797030e-08
2.024114e+00	1.188198e-05
2.029627e+00	1.965732e-03
2.035140e+00	6.081064e-02
2.040654e+00	3.561413e-01
2.046167e+00	4.681295e-01
2.051680e+00	3.576274e-01
2.057193e+00	1.677903e-01
2.062706e+00	1.808121e-02
2.068219e+00	3.702214e-04
2.073732e+00	1.718833e-04
2.079246e+00	8.325372e-03
2.084759e+00	7.596365e-02
2.090272e+00	1.294959e-01
2.095785e+00	4.124346e-02
2.101298e+00	2.476819e-03
2.106811e+00	2.400392e-03
2.112324e+00	4.641734e-02
2.117837e+00	1.696250e-01
2.123350e+00	1.158106e-01
2.128863e+00	1.477253e-02
2.134375e+00	3.520544e-04
2.139888e+00	1.567518e-06
2.145401e+00	1.303958e-09
2.150914e+00	5.544482e-34
2.156427e+00	6.248059e-35
2.161940e+00	3.390611e-33
2.167453e+00	3.603394e-32
2.172965e+00	7.154744e-32
2.178478e+00	2.654145e-32
2.183991e+00	1.839515e-33
2.189504e+00	2.381936e-35
2.195016e+00	5.762421e-38
2.200529e+00	2.604522e-41
2.206042e+00	0.000000e+00
2.211554e+00	0.000000e+00
2.217067e+00	0.000000e+00
2.222580e+00	0.000000e+00
2.228092e+00	0.000000e+00
2.233605e+00	1.653693e-42
2.239117e+00	4.959896e-39
2.244630e+00	2.779319e-36
2.250142e+00	2.909728e-34
2.255655e+00	5.691339e-33
2.261168e+00	4.519236e-10
2.266680e+00	7.364695e-07
2.272192e+00	2.242295e-04
2.277705e+00	1.275515e-02
2.283217e+00	1.356276e-01
2.288730e+00	2.740152e-01
2.294242e+00	1.600623e-01
2.299754e+00	1.461833e-01
2.305267e+00	6.026226e-02
2.310779e+00	4.857684e-03
2.316291e+00	7.326039e-05
2.321804e+00	2.064313e-07
2.327316e+00	1.086753e-10
2.332828e+00	6.193677e-37
2.338340e+00	1.390024e-34
2.343853e+00	5.828335e-33
2.349365e+00	4.565777e-32
2.354877e+00	6.682409e-32
2.360389e+00	1.827257e-32
2.365901e+00	9.334999e-34
2.371413e+00	8.909987e-36
2.376926e+00	1.588869e-38
2.382438e+00	5.293552e-42
2.387950e+00	0.000000e+00
2.393462e+00	0.000000e+00
2.398974e+00	0.000000e+00
2.404486e+00	0.000000e+00
2.409998e+00	0.000000e+00
2.415510e+00	0.000000e+00
2.421022e+00	0.000000e+00
2.426533e+00	5.365751e-11
2.432045e+00	1.186272e-07
2.437557e+00	4.899886e-05
2.443069e+00	3.781255e-03
2.448581e+00	5.451727e-02
2.454093e+00	1.468522e-01
2.459605e+00	7.390518e-02
2.465116e+00	6.948923e-03
2.470628e+00	1.220698e-04
2.476140e+00	4.006335e-07
2.481651e+00	2.456599e-10
2.487163e+00	0.000000e+00
2.492675e+00	0.000000e+00
2.498186e+00	0.000000e+00
2.503698e+00	2.726594e-40
2.509210e+00	6.028012e-37
2.514721e+00	2.489866e-34
2.520233e+00	1.921436e-32
2.525744e+00	1.255292e-09
2.531256e+00	1.111493e-06
2.536767e+00	1.838724e-04
2.542279e+00	5.682961e-03
2.547790e+00	3.281564e-02
2.553302e+00	3.540265e-02
2.558813e+00	7.143421e-03
2.564325e+00	5.915747e-04
2.569836e+00	2.531112e-03
2.575347e+00	3.701736e-03
2.580859e+00	1.012213e-03
2.586370e+00	5.171141e-05
2.591881e+00	4.937781e-07
2.597393e+00	3.392247e-07
2.602904e+00	1.030142e-04
2.608415e+00	5.859804e-03
2.613926e+00	6.227550e-02
2.619437e+00	1.236515e-01
2.624949e+00	4.587014e-02
2.630460e+00	3.179133e-03
2.635971e+00	4.116570e-05
2.641482e+00	9.958879e-08
2.646993e+00	4.501255e-11
2.652504e+00	8.951282e-32
2.658015e+00	1.548966e-32
2.663526e+00	5.026411e-34
2.669037e+00	1.386424e-11
2.674548e+00	3.065136e-08
2.680059e+00	1.266052e-05
2.685570e+00	9.770158e-04
2.691081e+00	1.408639e-02
2.696592e+00	3.794426e-02
2.702103e+00	1.909593e-02
2.707613e+00	1.805041e-03
2.713124e+00	1.031405e-03
2.718635e+00	1.955715e-02
2.724146e+00	7.146831e-02
2.729657e+00	4.879462e-02
2.735167e+00	6.224128e-03
2.740678e+00	1.483315e-04
2.746189e+00	6.604443e-07
2.751699e+00	5.493982e-10
2.757210e+00	0.000000e+00
2.762721e+00	0.000000e+00
2.768231e+00	2.429411e-13
2.773742e+00	9.885136e-10
2.779252e+00	7.514713e-07
2.784763e+00	1.067309e-04
2.790273e+00	2.832151e-03
2.795784e+00	1.404076e-02
2.801294e+00	1.300508e-02
2.806805e+00	2.250524e-03
2.812315e+00	7.276162e-05
2.817825e+00	4.395105e-07
2.823336e+00	4.960030e-10
2.828846e+00	4.353655e-36
2.834356e+00	4.218296e-39
2.839867e+00	0.000000e+00
2.845377e+00	0.000000e+00
2.850887e+00	0.000000e+00
2.856397e+00	0.000000e+00
2.861907e+00	0.000000e+00
2.867418e+00	0.000000e+00
2.872928e+00	0.000000e+00
2.878438e+00	0.000000e+00
2.883948e+00	0.000000e+00
2.889458e+00	0.000000e+00
2.894968e+00	7.725352e-12
2.900478e+00	1.258949e-08
2.905988e+00	3.833062e-06
2.911498e+00	2.180378e-04
2.917008e+00	2.317213e-03
2.922518e+00	4.600959e-03
2.928028e+00	1.706785e-03
2.933538e+00	1.182926e-04
2.939048e+00	1.531737e-06
2.944557e+00	3.705606e-09
2.950067e+00	1.674875e-12
2.955577e+00	2.245413e-31
2.961087e+00	9.637271e-32
2.966596e+00	7.775183e-33
2.972106e+00	1.174351e-34
2.977616e+00	2.941153e-35
2.983126e+00	8.988130e-34
2.988635e+00	5.190097e-33
2.994145e+00	2.782391e-10
2.999654e+00	3.342921e-07
3.005164e+00	7.517271e-05
3.010673e+00	3.223534e-03
3.016183e+00	3.168475e-02
3.021692e+00	1.543924e-01
3.027202e+00	3.811231e-01
3.032711e+00	2.181282e-01
3.038221e+00	2.383801e-02
3.043730e+00	4.884798e-04
3.049239e+00	2.943186e-04
3.054749e+00	1.937654e-02
3.060258e+00	2.398515e-01
3.065767e+00	5.546981e-01
3.071277e+00	2.396730e-01
3.076786e+00	1.934772e-02
3.082295e+00	2.918022e-04
3.087804e+00	8.222342e-07
3.093313e+00	4.337836e-10
3.098823e+00	1.105622e-09
3.104332e+00	2.481308e-07
3.109841e+00	1.040406e-05
3.115350e+00	8.150287e-05
3.120859e+00	1.192865e-04
3.126368e+00	3.261820e-05
3.131877e+00	1.772361e-06
3.137386e+00	1.294001e-05
3.142895e+00	2.944385e-04
3.148404e+00	1.253247e-03
3.153912e+00	9.966145e-04
3.159421e+00	1.481143e-04
3.164930e+00	1.272670e-05
3.170439e+00	3.102101e-04
3.175948e+00	2.086240e-03
3.181456e+00	2.621505e-03
3.186965e+00	6.154415e-04
3.192474e+00	2.899653e-05
3.197982e+00	3.314895e-04
3.203491e+00	1.023854e-02
3.209000e+00	5.912132e-02
3.214508e+00	6.378205e-02
3.220017e+00	1.285586e-02
3.225525e+00	4.841186e-04
3.231034e+00	3.406280e-06
3.236542e+00	1.819817e-07
3.242051e+00	2.521085e-05
3.247559e+00	6.689806e-04
3.253068e+00	3.316559e-03
3.258576e+00	3.071922e-03
3.264084e+00	5.315950e-04
3.269593e+00	1.760613e-05
3.275101e+00	1.732342e-04
3.280609e+00	1.336052e-02
3.286117e+00	1.926289e-01
3.291626e+00	5.188810e-01
3.297134e+00	2.611333e-01
3.302642e+00	2.455302e-02
3.308150e+00	4.313161e-04
3.313658e+00	1.415581e-06
3.319166e+00	8.680039e-10
3.324674e+00	2.198271e-33
3.330182e+00	2.005781e-32
3.335690e+00	1.119750e-12
3.341198e+00	2.883411e-09
3.346706e+00	1.387206e-06
3.352214e+00	1.246942e-04
3.357722e+00	2.098376e-03
3.363230e+00	7.117265e-03
3.368737e+00	1.633063e-02
3.374245e+00	5.354063e-02
3.379753e+00	4.225014e-02
3.385261e+00	6.275963e-03
3.390768e+00	1.742089e-04
3.396276e+00	2.342359e-06
3.401784e+00	1.754625e-04
3.407291e+00	3.997387e-03
3.412799e+00	1.701447e-02
3.418307e+00	1.353035e-02
3.423814e+00	2.010255e-03
3.429322e+00	6.522116e-05
3.434829e+00	9.866142e-04
3.440337e+00	1.929449e-02
3.445844e+00	7.074742e-02
3.451351e+00	5.296870e-02
3.456859e+00	2.380875e-02
3.462366e+00	1.220970e-02
3.467873e+00	1.539427e-03
3.473381e+00	3.667217e-05
3.478888e+00	1.632800e-07
3.484395e+00	1.361648e-10
3.489902e+00	1.014943e-09
3.495410e+00	5.687320e-07
3.500917e+00	5.954381e-05
3.506424e+00	1.166219e-03
3.511931e+00	4.483381e-03
3.517438e+00	8.942088e-03
3.522945e+00	3.038821e-02
3.528452e+00	3.023822e-02
3.533959e+00	1.725836e-02
3.539466e+00	1.169796e-02
3.544973e+00	1.998430e-03
3.550480e+00	6.458195e-05
3.555986e+00	3.900955e-07
3.561493e+00	4.402364e-10
3.567000e+00	1.962087e-33
3.572507e+00	3.294482e-32
3.578014e+00	1.632942e-31
3.583520e+00	1.512492e-31
3.589027e+00	2.617522e-32
3.594534e+00	9.352869e-13
3.600040e+00	3.805629e-09
3.605547e+00	2.893052e-06
3.611053e+00	4.108981e-04
3.616560e+00	1.090336e-02
3.622066e+00	5.405483e-02
3.627573e+00	5.006761e-02
3.633079e+00	8.664185e-03
3.638586e+00	2.845080e-04
3.644092e+00	7.273759e-04
3.649598e+00	2.242878e-02
3.655105e+00	1.295125e-01
3.660611e+00	1.397225e-01
3.666117e+00	2.818759e-02
3.671623e+00	2.293604e-03
3.677129e+00	1.125859e-02
3.682636e+00	1.918848e-02
3.688142e+00	6.419644e-03
3.693648e+00	2.455322e-03
3.699154e+00	2.632575e-03
3.704660e+00	6.170978e-04
3.710166e+00	2.706642e-05
3.715672e+00	2.218000e-07
3.721178e+00	3.395788e-10
3.726684e+00	9.713321e-14
3.732190e+00	1.726814e-33
3.737696e+00	3.367840e-11
3.743201e+00	4.712042e-08
3.748707e+00	1.231729e-05
3.754213e+00	6.015463e-04
3.759719e+00	5.488722e-03
3.765224e+00	9.356676e-03
3.770730e+00	2.980026e-03
3.776236e+00	1.773237e-04
3.781741e+00	1.971340e-06
3.787247e+00	4.094535e-09
3.792752e+00	1.588897e-12
3.798258e+00	1.891431e-33
3.803763e+00	2.010134e-32
3.809269e+00	3.991781e-32
3.814774e+00	1.516990e-32
3.820280e+00	8.856008e-13
3.825785e+00	2.656169e-09
3.831290e+00	1.488406e-06
3.836796e+00	1.558244e-04
3.842301e+00	3.047878e-03
3.847806e+00	1.113801e-02
3.853311e+00	7.604795e-03
3.858816e+00	1.083708e-03
3.864321e+00	6.574720e-03
3.869827e+00	7.371152e-02
3.875332e+00	1.836200e-01
3.880837e+00	1.317115e-01
3.886342e+00	3.593361e-02
3.891847e+00	1.099164e-01
3.897352e+00	3.349211e-01
3.902856e+00	1.948869e-01
3.908361e+00	3.548640e-02
3.913866e+00	5.304439e-02
3.919371e+00	3.592462e-02
3.924876e+00	4.582254e-03
3.930380e+00	1.092028e-04
3.935885e+00	4.862243e-07
3.941390e+00	4.044713e-10
3.946895e+00	1.540108e-32
3.952399e+00	6.380864e-33
3.957904e+00	9.066587e-33
3.963408e+00	1.330262e-09
3.968913e+00	1.371926e-06
3.974417e+00	2.643460e-04
3.979922e+00	9.516237e-03
3.985426e+00	6.402213e-02
3.990930e+00	8.168530e-02
3.996435e+00	3.448988e-02
4.001939e+00	3.692668e-02
4.007443e+00	1.560418e-02
4.012948e+00	1.259118e-03
4.018452e+00	1.898987e-05
4.023956e+00	9.170427e-08
4.029460e+00	1.354497e-05
4.034964e+00	8.974226e-04
4.040468e+00	1.111046e-02
4.045972e+00	2.585347e-02
4.051476e+00	1.383409e-02
4.056980e+00	9.472970e-03
4.062484e+00	5.041061e-03
4.067988e+00	5.506359e-04
4.073492e+00	1.219454e-05
4.078996e+00	3.348404e-05
4.084500e+00	2.250195e-04
4.090004e+00	3.198631e-04
4.095507e+00	2.523693e-03
4.101011e+00	3.031259e-02
4.106515e+00	6.988117e-02
4.112018e+00	3.011427e-02
4.117522e+00	2.425455e-03
4.123026e+00	3.650913e-05
4.128529e+00	2.172933e-07
4.134033e+00	2.571758e-05
4.139536e+00	1.078329e-03
4.145040e+00	8.447370e-03
4.150543e+00	1.236346e-02
4.156046e+00	3.380699e-03
4.161550e+00	1.730344e-04
4.167053e+00	3.067510e-05
4.172556e+00	4.874546e-04
4.178059e+00	1.533613e-03
4.183563e+00	1.502997e-03
4.189066e+00	1.620083e-02
4.194569e+00	8.066535e-02
4.200072e+00	9.099348e-02
4.205575e+00	7.523970e-02
4.211078e+00	4.313203e-02
4.216581e+00	9.393493e-03
4.222084e+00	3.620338e-02
4.227587e+00	6.273555e-02
4.233090e+00	4.379736e-02
4.238593e+00	8.847922e-02
4.244096e+00	5.902838e-02
4.249598e+00	7.471712e-03
4.255101e+00	1.916944e-04
4.260604e+00	1.314873e-03
4.266106e+00	2.206758e-02
4.271609e+00	6.923696e-02
4.277112e+00	4.062387e-02
4.282614e+00	4.804603e-03
4.288117e+00	7.046183e-04
4.293619e+00	1.957991e-04
4.299122e+00	1.163041e-05
4.304624e+00	1.292946e-07
4.310127e+00	2.685490e-10
4.315629e+00	1.839241e-12
4.321131e+00	7.061520e-09
4.326634e+00	5.372184e-06
4.332136e+00	7.652448e-04
4.337638e+00	2.054034e-02
4.343140e+00	1.064130e-01
4.348642e+00	1.153066e-01
4.354144e+00	3.138484e-02
4.359646e+00	2.472825e-03
4.365148e+00	4.968640e-05
4.370650e+00	2.107947e-07
4.376152e+00	1.920383e-10
4.381654e+00	2.359065e-08
4.387156e+00	5.304090e-06
4.392658e+00	2.253607e-04
4.398160e+00	1.933887e-03
4.403662e+00	4.620796e-03
4.409163e+00	4.818436e-03
4.414665e+00	1.564903e-03
4.420167e+00	1.063348e-04
4.425668e+00	1.373173e-06
4.431170e+00	1.163943e-07
4.436672e+00	3.940123e-05
4.442173e+00	2.570844e-03
4.447675e+00	3.140134e-02
4.453176e+00	7.178661e-02
4.458677e+00	3.126603e-02
4.464179e+00	2.263375e-02
4.469680e+00	1.357385e-01
4.475181e+00	1.705187e-01
4.480683e+00	4.006817e-02
4.486184e+00	5.553567e-03
4.491685e+00	7.429647e-02
4.497186e+00	2.714528e-01
4.502687e+00	1.853330e-01
4.508188e+00	2.364065e-02
4.513690e+00	5.636342e-04
4.519191e+00	6.500696e-06
4.524691e+00	1.252739e-05
4.530192e+00	7.342010e-06
4.535693e+00	8.083025e-07
4.541194e+00	1.124994e-06
4.546695e+00	5.413856e-05
4.552196e+00	4.939789e-04
4.557696e+00	8.421665e-04
4.563197e+00	2.790138e-04
4.568698e+00	3.051144e-04
4.574198e+00	1.578189e-03
4.579699e+00	3.250774e-03
4.585200e+00	4.827509e-03
4.590700e+00	6.578665e-03
4.596201e+00	3.136054e-02
4.601701e+00	3.921303e-02
4.607201e+00	9.205327e-03
4.612702e+00	4.037584e-04
4.618202e+00	3.308662e-06
4.623702e+00	5.065606e-09
4.629203e+00	8.284308e-11
4.634703e+00	7.207004e-08
4.640203e+00	1.192243e-05
4.645703e+00	3.684875e-04
4.651203e+00	2.127791e-03
4.656703e+00	2.295532e-03
4.662203e+00	4.626855e-04
4.667703e+00	1.742355e-05
4.673203e+00	1.225845e-07
4.678703e+00	1.618800e-10
4.684203e+00	1.925542e-09
4.689703e+00	9.263560e-07
4.695203e+00	8.326450e-05
4.700702e+00	1.398267e-03
4.706202e+00	4.387007e-03
4.711702e+00	2.571549e-03
4.717201e+00	2.816238e-04
4.722701e+00	5.762250e-06
4.728201e+00	2.202739e-08
4.733700e+00	1.573193e-11
4.739199e+00	1.199521e-33
4.744699e+00	1.702260e-32
4.750198e+00	4.587314e-32
4.755698e+00	2.589835e-32
4.761197e+00	7.705597e-32
4.766696e+00	3.712965e-31
4.772195e+00	3.438736e-31
4.777695e+00	5.950715e-32
4.783194e+00	1.923924e-33
4.788693e+00	1.162134e-35
4.794192e+00	8.552573e-38
4.799691e+00	3.143512e-35
4.805190e+00	2.983855e-11
4.810689e+00	4.174798e-08
4.816188e+00	1.091293e-05
4.821687e+00	5.329609e-04
4.827186e+00	4.862925e-03
4.832684e+00	8.290079e-03
4.838183e+00	2.658731e-03
4.843682e+00	4.673238e-04
4.849181e+00	9.752484e-04
4.854679e+00	5.865397e-04
4.860178e+00	2.934014e-04
4.865676e+00	6.233087e-04
4.871175e+00	3.159188e-04
4.876673e+00	5.077667e-04
4.882172e+00	1.501984e-02
4.887670e+00	9.211863e-02
4.893169e+00	1.329016e-01
4.898667e+00	7.254933e-02
4.904165e+00	2.305837e-02
4.909663e+00	1.517578e-02
4.915162e+00	4.753524e-03
4.920660e+00	2.987638e-04
4.926158e+00	1.374239e-04
4.931656e+00	3.049812e-03
4.937154e+00	1.298118e-02
4.942652e+00	1.032297e-02
4.948150e+00	1.536629e-03
4.953648e+00	3.985600e-04
4.959146e+00	8.110369e-03
4.964644e+00	3.452002e-02
4.970141e+00	2.745121e-02
4.975639e+00	4.078496e-03
4.981137e+00	1.132105e-04
4.986634e+00	5.871130e-07
4.992132e+00	5.688591e-10
4.997630e+00	1.809244e-12
5.003127e+00	7.361710e-09
5.008625e+00	5.596397e-06
5.014122e+00	7.948523e-04
5.019620e+00	2.109175e-02
5.025117e+00	1.045658e-01
5.030614e+00	9.687105e-02
5.036112e+00	1.698947e-02
5.041609e+00	1.929260e-03
5.047106e+00	2.043636e-03
5.052603e+00	7.497698e-04
5.058100e+00	2.489028e-03
5.063597e+00	6.626524e-03
5.069094e+00	3.790644e-03
5.074591e+00	8.015299e-03
5.080088e+00	2.434149e-02
5.085585e+00	1.639654e-02
5.091082e+00	7.333599e-03
5.096579e+00	1.017935e-02
5.102076e+00	2.488085e-02
5.107572e+00	3.965790e-02
5.113069e+00	2.946397e-02
5.118566e+00	5.308175e-03
5.124062e+00	2.988851e-03
5.129559e+00	8.538698e-03
5.135056e+00	2.121013e-02
5.140552e+00	1.914962e-02
5.146049e+00	1.403358e-02
5.151545e+00	8.034082e-03
5.157041e+00	1.150147e-03
5.162538e+00	5.619299e-03
5.168034e+00	4.383095e-02
5.173530e+00	6.421997e-02
5.179026e+00	2.011148e-02
5.184522e+00	1.942659e-02
5.190019e+00	3.047645e-02
5.195515e+00	1.490231e-02
5.201011e+00	2.243011e-03
5.206507e+00	1.416205e-03
5.212003e+00	1.222014e-02
5.217498e+00	2.083093e-02
5.222994e+00	6.649175e-03
5.228490e+00	1.119344e-03
5.233986e+00	6.707104e-03
5.239482e+00	1.281654e-02
5.244977e+00	1.562077e-02
5.250473e+00	2.054511e-02
5.255968e+00	6.732396e-03
5.261464e+00	1.294855e-03
5.266959e+00	6.239301e-04
5.272455e+00	7.904269e-05
5.277950e+00	1.909159e-06
5.283446e+00	7.818975e-06
5.288941e+00	4.443799e-04
5.294436e+00	4.739362e-03
5.299932e+00	1.001077e-02
5.305427e+00	7.752388e-03
5.310922e+00	5.612283e-03
5.316417e+00	1.264104e-03
5.321912e+00	5.531606e-05
5.327407e+00	4.532385e-07
5.332902e+00	3.839840e-09
5.338397e+00	2.391549e-06
5.343892e+00	3.396707e-04
5.349387e+00	9.013720e-03
5.354882e+00	4.473004e-02
5.360376e+00	4.227830e-02
5.365871e+00	1.043581e-02
5.371366e+00	3.386318e-03
5.376860e+00	7.628634e-03
5.382355e+00	1.233280e-02
5.387849e+00	2.747150e-02
5.393344e+00	7.210931e-02
5.398838e+00	4.087259e-02
5.404333e+00	4.534753e-03
5.409827e+00	9.887121e-05
5.415321e+00	2.051163e-06
5.420816e+00	9.509519e-05
5.426310e+00	1.195120e-03
5.431804e+00	3.030975e-03
5.437298e+00	1.777814e-03
5.442792e+00	1.063046e-02
5.448286e+00	7.056958e-02
5.453780e+00	8.867252e-02
5.459274e+00	2.081726e-02
5.464768e+00	9.130746e-04
5.470262e+00	7.482334e-06
5.475756e+00	1.149695e-08
5.481250e+00	4.467141e-08
5.486743e+00	9.484544e-06
5.492237e+00	3.954625e-04
5.497731e+00	3.217186e-03
5.503224e+00	5.062378e-03
5.508718e+00	1.527424e-03
5.514211e+00	1.037601e-04
5.519705e+00	3.155550e-04
5.525198e+00	1.149775e-03
5.530691e+00	8.083575e-04
5.536185e+00	1.101450e-03
5.541678e+00	8.351651e-03
5.547171e+00	1.472431e-02
5.552664e+00	6.347707e-03
5.558158e+00	7.662222e-04
5.563651e+00	3.816972e-04
5.569144e+00	6.166126e-04
5.574637e+00	1.963487e-04
5.580130e+00	1.168904e-05
5.585622e+00	4.950294e-07
5.591115e+00	4.594259e-06
5.596608e+00	1.232836e-05
5.602101e+00	1.734727e-05
5.607594e+00	2.821616e-04
5.613086e+00	2.928192e-03
5.618579e+00	5.812231e-03
5.624071e+00	2.156112e-03
5.629564e+00	1.494342e-04
5.635056e+00	1.934981e-06
5.640549e+00	4.681141e-09
5.646041e+00	2.115801e-12
5.651534e+00	9.063154e-15
5.657026e+00	3.687746e-11
5.662518e+00	2.803437e-08
5.668010e+00	3.981702e-06
5.673502e+00	1.056569e-04
5.678995e+00	5.240449e-04
5.684487e+00	5.001127e-04
5.689979e+00	3.262759e-04
5.695471e+00	1.517241e-03
5.700963e+00	2.951745e-03
5.706454e+00	1.237199e-03
5.711946e+00	9.962060e-05
5.717438e+00	1.750283e-05
5.722930e+00	1.981237e-04
5.728421e+00	4.582676e-04
5.733913e+00	2.202518e-04
5.739405e+00	1.181273e-03
5.744896e+00	1.192927e-02
5.750388e+00	2.440324e-02
5.755879e+00	1.015709e-02
5.761371e+00	9.146709e-04
5.766862e+00	9.770031e-04
5.772353e+00	3.515685e-03
5.777844e+00	2.404232e-03
5.783336e+00	7.203244e-04
5.788827e+00	8.107960e-03
5.794318e+00	2.960270e-02
5.799809e+00	2.021107e-02
5.805300e+00	2.578077e-03
5.810791e+00	6.143992e-05
5.816282e+00	2.776386e-07
5.821773e+00	2.072468e-06
5.827264e+00	2.001232e-04
5.832754e+00	3.708275e-03
5.838245e+00	1.357233e-02
5.843736e+00	1.073114e-02
5.849226e+00	2.208814e-03
5.854717e+00	1.322969e-04
5.860207e+00	1.983564e-06
5.865698e+00	6.216367e-09
5.871188e+00	6.336595e-10
5.876679e+00	5.003293e-07
5.882169e+00	7.483558e-05
5.887659e+00	2.141036e-03
5.893150e+00	1.270466e-02
5.898640e+00	2.101644e-02
5.904130e+00	1.502431e-02
5.909620e+00	1.076921e-02
5.915110e+00	1.615316e-02
5.920600e+00	3.124562e-02
5.926090e+00	2.958062e-02
5.931580e+00	2.695757e-02
5.937070e+00	8.230777e-03
5.942560e+00	6.200002e-04
5.948049e+00	6.384400e-05
5.953539e+00	1.337393e-05
5.959029e+00	1.453619e-04
5.964518e+00	4.563054e-04
5.970008e+00	3.331237e-04
5.975497e+00	1.796281e-03
5.980987e+00	9.059422e-03
5.986476e+00	9.327472e-03
5.991966e+00	2.163270e-03
5.997455e+00	1.300815e-04
6.002944e+00	2.018371e-06
6.008433e+00	9.803903e-07
6.013922e+00	8.486947e-05
6.019412e+00	1.387412e-03
6.024901e+00	4.259646e-03
6.030390e+00	2.866814e-03
6.035879e+00	4.154542e-03
6.041368e+00	6.911799e-03
6.046856e+00	9.483803e-03
6.052345e+00	4.290288e-02
6.057834e+00	5.627625e-02
6.063323e+00	2.171451e-02
6.068811e+00	4.468751e-02
6.074300e+00	8.273607e-02
6.079788e+00	5.464141e-02
6.085277e+00	1.343200e-02
6.090765e+00	3.792524e-03
6.096254e+00	4.354899e-03
6.101742e+00	3.695945e-03
6.107230e+00	1.166721e-02
6.112719e+00	1.306507e-02
6.118207e+00	3.789635e-03
6.123695e+00	3.974986e-03
6.129183e+00	2.286237e-02
6.134671e+00	3.905570e-02
6.140159e+00	2.377121e-02
6.145647e+00	4.882280e-03
6.151135e+00	3.193981e-04
6.156623e+00	2.671231e-04
6.162111e+00	2.166014e-04
6.167598e+00	2.671201e-04
6.173086e+00	1.638804e-03
6.178574e+00	3.645250e-03
6.184061e+00	1.031279e-02
6.189549e+00	1.637976e-02
6.195036e+00	2.426536e-02
6.200524e+00	1.523812e-02
6.206011e+00	2.132066e-03
6.211499e+00	8.924483e-04
6.216986e+00	6.756342e-04
6.222473e+00	3.559743e-04
6.227960e+00	5.479366e-03
6.233447e+00	2.453194e-02
6.238935e+00	2.508270e-02
6.244422e+00	6.153573e-03
6.249909e+00	3.478640e-04
6.255395e+00	2.190029e-04
6.260882e+00	4.896268e-03
6.266369e+00	2.084043e-02
6.271856e+00	1.657284e-02
6.277343e+00	2.462603e-03
6.282829e+00	1.325903e-04
6.288316e+00	2.321638e-03
6.293802e+00	1.578068e-02
6.299289e+00	2.044487e-02
6.304775e+00	5.219885e-03
6.310262e+00	2.825529e-04
6.315748e+00	5.048780e-06
6.321234e+00	4.063434e-05
6.326721e+00	3.793936e-04
6.332207e+00	3.340558e-03
6.337693e+00	9.956421e-03
6.343179e+00	5.819240e-03
6.348665e+00	6.373099e-04
6.354151e+00	1.518193e-05
6.359637e+00	9.857383e-05
6.365123e+00	1.880360e-03
6.370609e+00	6.868256e-03
6.376095e+00	4.689224e-03
6.381580e+00	5.981464e-04
6.387066e+00	1.425484e-05
6.392552e+00	6.346951e-08
6.398037e+00	5.299642e-11
6.403523e+00	2.788696e-10
6.409008e+00	7.533248e-08
6.414494e+00	4.874001e-06
6.419979e+00	1.547015e-04
6.425464e+00	2.184939e-03
6.430949e+00	7.470994e-03
6.436435e+00	1.148194e-02
6.441920e+00	1.981886e-02
6.447405e+00	9.730286e-03
6.452890e+00	9.138791e-04
6.458375e+00	1.606491e-05
6.463860e+00	5.596818e-08
6.469345e+00	2.000068e-10
6.474829e+00	1.600659e-12
6.480314e+00	2.854366e-15
6.485799e+00	5.103896e-11
6.491284e+00	6.494130e-08
6.496768e+00	1.660967e-05
6.502253e+00	9.095082e-04
6.507737e+00	1.129621e-02
6.513222e+00	3.211474e-02
6.518706e+00	2.510227e-02
6.524190e+00	2.131318e-02
6.529675e+00	1.238417e-02
6.535159e+00	3.532251e-03
6.540643e+00	8.262519e-04
6.546127e+00	5.212340e-05
6.551611e+00	6.346660e-07
6.557095e+00	3.017731e-09
6.562579e+00	4.582782e-07
6.568063e+00	3.994183e-05
6.573547e+00	1.527923e-03
6.579031e+00	1.700674e-02
6.584515e+00	3.872381e-02
6.589998e+00	1.669559e-02
6.595482e+00	1.347359e-03
6.600965e+00	2.078075e-05
6.606449e+00	3.058372e-05
6.611932e+00	3.778702e-04
6.617416e+00	8.738904e-04
6.622899e+00	3.776306e-04
6.628382e+00	3.637398e-05
6.633866e+00	1.568309e-04
6.639349e+00	7.752329e-04
6.644832e+00	7.185726e-04
6.650315e+00	1.882980e-04
6.655798e+00	1.471944e-03
6.661281e+00	6.489253e-03
6.666764e+00	6.715832e-03
6.672247e+00	9.478135e-03
6.677730e+00	2.745596e-02
6.683212e+00	1.858601e-02
6.688695e+00	2.394933e-03
6.694178e+00	2.643473e-04
6.699660e+00	6.475627e-04
6.705143e+00	2.158320e-03
6.710625e+00	2.277200e-03
6.716108e+00	1.061665e-03
6.721590e+00	2.709694e-03
6.727072e+00	3.325428e-03
6.732555e+00	1.459356e-03
6.738037e+00	6.797793e-04
6.743519e+00	4.878543e-03
6.749001e+00	2.990962e-02
6.754483e+00	4.047020e-02
6.759965e+00	3.068201e-02
6.765447e+00	3.339297e-02
6.770929e+00	1.727612e-02
6.776411e+00	4.185581e-03
6.781892e+00	4.201615e-04
6.787374e+00	1.901312e-03
6.792856e+00	4.592536e-03
6.798337e+00	2.235270e-03
6.803819e+00	1.888663e-03
6.809300e+00	1.125095e-02
6.814782e+00	1.415975e-02
6.820263e+00	4.631930e-03
6.825744e+00	1.239527e-02
6.831226e+00	2.362807e-02
6.836707e+00	9.831757e-03
6.842188e+00	2.725381e-03
6.847669e+00	1.907467e-02
6.853150e+00	3.767030e-02
6.858631e+00	1.400555e-02
6.864112e+00	1.164241e-03
6.869593e+00	2.570621e-04
6.875074e+00	2.215123e-03
6.880554e+00	1.252313e-02
6.886035e+00	1.953591e-02
6.891516e+00	2.421816e-02
6.896996e+00	2.911657e-02
6.902477e+00	1.274409e-02
6.907957e+00	4.000069e-03
6.913437e+00	4.819212e-03
6.918918e+00	6.505490e-03
6.924398e+00	3.217854e-03
6.929878e+00	9.996691e-03
6.935358e+00	2.166684e-02
6.940839e+00	1.831139e-02
6.946319e+00	4.200247e-03
6.951799e+00	5.717231e-03
6.957279e+00	3.115622e-02
6.962758e+00	4.248977e-02
6.968238e+00	1.541057e-02
6.973718e+00	1.904104e-03
6.979198e+00	7.473515e-03
6.984677e+00	1.987418e-02
6.990157e+00	9.942631e-03
6.995636e+00	9.354006e-04
7.001116e+00	1.244955e-04
7.006595e+00	5.372419e-04
7.012075e+00	5.326362e-04
7.017554e+00	1.105432e-03
7.023033e+00	8.733564e-03
7.028512e+00	2.422465e-02
7.033992e+00	2.951593e-02
7.039471e+00	1.062354e-02
7.044950e+00	9.298423e-03
7.050429e+00	2.271903e-02
7.055907e+00	1.154142e-02
7.061386e+00	5.153643e-03
7.066865e+00	1.661063e-02
7.072344e+00	2.194793e-02
7.077822e+00	1.715763e-02
7.083301e+00	2.321554e-02
7.088780e+00	1.504603e-02
7.094258e+00	2.410101e-03
7.099736e+00	3.739766e-04
7.105215e+00	2.540599e-03
7.110693e+00	4.386363e-03
7.116171e+00	1.873641e-03
7.121649e+00	3.069324e-04
7.127128e+00	1.713572e-05
7.132606e+00	2.197011e-07
7.138084e+00	1.744490e-06
7.143562e+00	9.522699e-05
7.149040e+00	9.854006e-04
7.154517e+00	1.926522e-03
7.159995e+00	8.773300e-04
7.165473e+00	3.278262e-03
7.170950e+00	1.179334e-02
7.176428e+00	8.055722e-03
7.181906e+00	1.028375e-03
7.187383e+00	2.621760e-05
7.192861e+00	6.386869e-05
7.198338e+00	5.421147e-04
7.203815e+00	1.154805e-03
7.209292e+00	6.649850e-04
7.214770e+00	1.370589e-04
7.220247e+00	6.360772e-05
7.225724e+00	2.427817e-05
7.231201e+00	4.457321e-04
7.236678e+00	5.827039e-03
7.242155e+00	2.333385e-02
7.247631e+00	3.367266e-02
7.253108e+00	1.511220e-02
7.258585e+00	2.339149e-02
7.264061e+00	4.406619e-02
7.269538e+00	1.631424e-02
7.275015e+00	1.130295e-03
7.280491e+00	1.606059e-05
7.285967e+00	7.031400e-05
7.291444e+00	6.582224e-04
7.296920e+00	1.206723e-03
7.302396e+00	4.863515e-04
7.307872e+00	3.482795e-04
7.313348e+00	1.305390e-03
7.318825e+00	2.912466e-03
7.324300e+00	7.055530e-03
7.329776e+00	5.385561e-03
7.335252e+00	7.983318e-04
7.340728e+00	2.501000e-05
7.346204e+00	2.004669e-04
7.351679e+00	3.938526e-03
7.357155e+00	1.630266e-02
7.362631e+00	1.301019e-02
7.368106e+00	2.002055e-03
7.373582e+00	8.643248e-05
7.379057e+00	1.363929e-04
7.384532e+00	2.579848e-04
7.390007e+00	1.993142e-03
7.395483e+00	1.326510e-02
7.400958e+00	2.611864e-02
7.406433e+00	1.161137e-02
7.411908e+00	2.313532e-03
7.417383e+00	4.717081e-03
7.422858e+00	3.507616e-03
7.428332e+00	4.759246e-03
7.433807e+00	1.173286e-02
7.439282e+00	6.265400e-03
7.444756e+00	5.859597e-03
7.450231e+00	1.430041e-02
7.455706e+00	7.237597e-03
7.461180e+00	1.592519e-03
7.466654e+00	3.670028e-03
7.472129e+00	3.633746e-03
7.477603e+00	1.350070e-03
7.483077e+00	7.496254e-04
7.488551e+00	2.525884e-03
7.494025e+00	2.061705e-03
7.499499e+00	6.884698e-04
7.504973e+00	7.356808e-04
7.510447e+00	3.559982e-03
7.515921e+00	9.420999e-03
7.521395e+00	8.347291e-03
7.526869e+00	1.412111e-02
7.532342e+00	1.127350e-02
7.537816e+00	1.195243e-02
7.543289e+00	1.765847e-02
7.548763e+00	2.191925e-02
7.554236e+00	1.202325e-02
7.559709e+00	8.339659e-03
7.565183e+00	2.624016e-02
7.570656e+00	1.940505e-02
7.576129e+00	3.258906e-03
7.581602e+00	1.272647e-03
7.587075e+00	1.680696e-03
7.592548e+00	4.592187e-04
7.598021e+00	2.513886e-05
7.603494e+00	1.643479e-04
7.608967e+00	3.099086e-03
7.614439e+00	1.136033e-02
7.619912e+00	8.695656e-03
7.625384e+00	9.570113e-03
7.630857e+00	2.447423e-02
7.636329e+00	2.289396e-02
7.641802e+00	1.648073e-02
7.647274e+00	9.111568e-03
7.652746e+00	5.787619e-03
7.658219e+00	1.180256e-03
7.663691e+00	5.335220e-05
7.669163e+00	5.678267e-07
7.674635e+00	5.947072e-06
7.680107e+00	1.174164e-04
7.685579e+00	5.648011e-04
7.691050e+00	3.477608e-03
7.696522e+00	1.360435e-02
7.701994e+00	1.079000e-02
7.707465e+00	1.605867e-03
7.712937e+00	1.399904e-04
7.718409e+00	8.404732e-04
7.723880e+00	3.541727e-03
7.729351e+00	5.206195e-03
7.734823e+00	1.626907e-03
7.740294e+00	1.097543e-04
7.745765e+00	5.633211e-04
7.751236e+00	5.015380e-03
7.756707e+00	8.706118e-03
7.762178e+00	3.292993e-03
7.767649e+00	7.530164e-04
7.773120e+00	4.428564e-04
7.778591e+00	1.891709e-04
7.784061e+00	1.262727e-03
7.789532e+00	9.074440e-03
7.795003e+00	2.573431e-02
7.800473e+00	3.385749e-02
7.805944e+00	1.546071e-02
7.811414e+00	1.926005e-03
7.816884e+00	2.852625e-03
7.822355e+00	1.172285e-02
7.827825e+00	1.078245e-02
7.833295e+00	6.176379e-03
7.838765e+00	4.586230e-03
7.844235e+00	7.176517e-03
7.849705e+00	1.236523e-02
7.855175e+00	5.155828e-03
7.860645e+00	3.831336e-03
7.866115e+00	7.349285e-03
7.871584e+00	8.641270e-03
7.877054e+00	5.810018e-03
7.882523e+00	6.956014e-03
7.887993e+00	2.190808e-02
7.893462e+00	1.566666e-02
7.898932e+00	3.919681e-03
7.904401e+00	1.056581e-03
7.909870e+00	9.522434e-05
7.915339e+00	1.669265e-06
7.915837e+00	1.063687e-06