File: cif_pxrd_calculator/example/txt/iq/li0.5tio2_Imma_36449.txt
# Q [Å^-1]	I_scaled [a.u.]
0.000000e+00	0.000000e+00
5.516321e-03	0.000000e+00
1.103264e-02	0.000000e+00
1.654896e-02	0.000000e+00
2.206528e-02	0.000000e+00
2.758161e-02	0.000000e+00
3.309793e-02	0.000000e+00
3.861425e-02	0.000000e+00
4.413057e-02	0.000000e+00
4.964689e-02	0.000000e+00
5.516321e-02	0.000000e+00
6.067952e-02	0.000000e+00
6.619584e-02	0.000000e+00
7.171216e-02	0.000000e+00
7.722848e-02	0.000000e+00
8.274479e-02	0.000000e+00
8.826111e-02	0.000000e+00
9.377742e-02	0.000000e+00
9.929374e-02	0.000000e+00
1.048101e-01	0.000000e+00
1.103264e-01	0.000000e+00
1.158427e-01	0.000000e+00
1.213590e-01	0.000000e+00
1.268753e-01	0.000000e+00
1.323916e-01	0.000000e+00
1.379079e-01	0.000000e+00
1.434242e-01	0.000000e+00
1.489405e-01	0.000000e+00
1.544568e-01	0.000000e+00
1.599731e-01	0.000000e+00
1.654894e-01	0.000000e+00
1.710057e-01	0.000000e+00
1.765220e-01	0.000000e+00
1.820383e-01	0.000000e+00
1.875546e-01	0.000000e+00
1.930709e-01	0.000000e+00
1.985872e-01	0.000000e+00
2.041035e-01	0.000000e+00
2.096198e-01	0.000000e+00
2.151361e-01	0.000000e+00
2.206524e-01	0.000000e+00
2.261686e-01	0.000000e+00
2.316849e-01	0.000000e+00
2.372012e-01	0.000000e+00
2.427175e-01	0.000000e+00
2.482338e-01	0.000000e+00
2.537500e-01	0.000000e+00
2.592663e-01	0.000000e+00
2.647826e-01	0.000000e+00
2.702988e-01	0.000000e+00
2.758151e-01	0.000000e+00
2.813314e-01	0.000000e+00
2.868476e-01	0.000000e+00
2.923639e-01	0.000000e+00
2.978802e-01	0.000000e+00
3.033964e-01	0.000000e+00
3.089127e-01	0.000000e+00
3.144289e-01	0.000000e+00
3.199452e-01	0.000000e+00
3.254614e-01	0.000000e+00
3.309776e-01	0.000000e+00
3.364939e-01	0.000000e+00
3.420101e-01	0.000000e+00
3.475263e-01	0.000000e+00
3.530426e-01	0.000000e+00
3.585588e-01	0.000000e+00
3.640750e-01	0.000000e+00
3.695912e-01	0.000000e+00
3.751075e-01	0.000000e+00
3.806237e-01	0.000000e+00
3.861399e-01	0.000000e+00
3.916561e-01	0.000000e+00
3.971723e-01	0.000000e+00
4.026885e-01	0.000000e+00
4.082047e-01	0.000000e+00
4.137209e-01	0.000000e+00
4.192371e-01	0.000000e+00
4.247533e-01	0.000000e+00
4.302695e-01	0.000000e+00
4.357856e-01	0.000000e+00
4.413018e-01	0.000000e+00
4.468180e-01	0.000000e+00
4.523342e-01	0.000000e+00
4.578503e-01	0.000000e+00
4.633665e-01	0.000000e+00
4.688826e-01	0.000000e+00
4.743988e-01	0.000000e+00
4.799149e-01	0.000000e+00
4.854311e-01	0.000000e+00
4.909472e-01	0.000000e+00
4.964634e-01	0.000000e+00
5.019795e-01	0.000000e+00
5.074956e-01	0.000000e+00
5.130118e-01	0.000000e+00
5.185279e-01	0.000000e+00
5.240440e-01	0.000000e+00
5.295601e-01	0.000000e+00
5.350762e-01	0.000000e+00
5.405923e-01	0.000000e+00
5.461084e-01	0.000000e+00
5.516245e-01	0.000000e+00
5.571406e-01	0.000000e+00
5.626567e-01	0.000000e+00
5.681728e-01	0.000000e+00
5.736889e-01	0.000000e+00
5.792049e-01	0.000000e+00
5.847210e-01	0.000000e+00
5.902371e-01	0.000000e+00
5.957531e-01	0.000000e+00
6.012692e-01	0.000000e+00
6.067852e-01	0.000000e+00
6.123013e-01	0.000000e+00
6.178173e-01	0.000000e+00
6.233333e-01	0.000000e+00
6.288494e-01	0.000000e+00
6.343654e-01	0.000000e+00
6.398814e-01	0.000000e+00
6.453974e-01	0.000000e+00
6.509134e-01	0.000000e+00
6.564294e-01	0.000000e+00
6.619454e-01	0.000000e+00
6.674614e-01	0.000000e+00
6.729774e-01	0.000000e+00
6.784934e-01	0.000000e+00
6.840093e-01	0.000000e+00
6.895253e-01	0.000000e+00
6.950413e-01	0.000000e+00
7.005572e-01	0.000000e+00
7.060732e-01	0.000000e+00
7.115891e-01	0.000000e+00
7.171051e-01	0.000000e+00
7.226210e-01	0.000000e+00
7.281369e-01	0.000000e+00
7.336528e-01	0.000000e+00
7.391688e-01	0.000000e+00
7.446847e-01	0.000000e+00
7.502006e-01	0.000000e+00
7.557165e-01	0.000000e+00
7.612323e-01	0.000000e+00
7.667482e-01	0.000000e+00
7.722641e-01	0.000000e+00
7.777800e-01	0.000000e+00
7.832958e-01	0.000000e+00
7.888117e-01	0.000000e+00
7.943276e-01	0.000000e+00
7.998434e-01	0.000000e+00
8.053592e-01	0.000000e+00
8.108751e-01	0.000000e+00
8.163909e-01	0.000000e+00
8.219067e-01	0.000000e+00
8.274225e-01	0.000000e+00
8.329383e-01	0.000000e+00
8.384541e-01	0.000000e+00
8.439699e-01	0.000000e+00
8.494857e-01	0.000000e+00
8.550015e-01	0.000000e+00
8.605172e-01	0.000000e+00
8.660330e-01	0.000000e+00
8.715488e-01	0.000000e+00
8.770645e-01	0.000000e+00
8.825803e-01	0.000000e+00
8.880960e-01	0.000000e+00
8.936117e-01	0.000000e+00
8.991274e-01	0.000000e+00
9.046431e-01	0.000000e+00
9.101588e-01	0.000000e+00
9.156745e-01	0.000000e+00
9.211902e-01	0.000000e+00
9.267059e-01	0.000000e+00
9.322216e-01	0.000000e+00
9.377373e-01	0.000000e+00
9.432529e-01	0.000000e+00
9.487686e-01	0.000000e+00
9.542842e-01	0.000000e+00
9.597998e-01	0.000000e+00
9.653155e-01	0.000000e+00
9.708311e-01	0.000000e+00
9.763467e-01	0.000000e+00
9.818623e-01	0.000000e+00
9.873779e-01	0.000000e+00
9.928935e-01	0.000000e+00
9.984091e-01	0.000000e+00
1.003925e+00	0.000000e+00
1.009440e+00	0.000000e+00
1.014956e+00	0.000000e+00
1.020471e+00	0.000000e+00
1.025987e+00	0.000000e+00
1.031502e+00	0.000000e+00
1.037018e+00	0.000000e+00
1.042533e+00	0.000000e+00
1.048049e+00	0.000000e+00
1.053564e+00	0.000000e+00
1.059080e+00	0.000000e+00
1.064595e+00	0.000000e+00
1.070111e+00	0.000000e+00
1.075626e+00	0.000000e+00
1.081142e+00	0.000000e+00
1.086657e+00	0.000000e+00
1.092173e+00	0.000000e+00
1.097688e+00	0.000000e+00
1.103203e+00	0.000000e+00
1.108719e+00	0.000000e+00
1.114234e+00	0.000000e+00
1.119750e+00	0.000000e+00
1.125265e+00	0.000000e+00
1.130780e+00	0.000000e+00
1.136296e+00	0.000000e+00
1.141811e+00	0.000000e+00
1.147326e+00	0.000000e+00
1.152842e+00	0.000000e+00
1.158357e+00	0.000000e+00
1.163872e+00	0.000000e+00
1.169388e+00	0.000000e+00
1.174903e+00	0.000000e+00
1.180418e+00	0.000000e+00
1.185933e+00	0.000000e+00
1.191449e+00	0.000000e+00
1.196964e+00	0.000000e+00
1.202479e+00	0.000000e+00
1.207994e+00	0.000000e+00
1.213510e+00	0.000000e+00
1.219025e+00	0.000000e+00
1.224540e+00	0.000000e+00
1.230055e+00	0.000000e+00
1.235570e+00	0.000000e+00
1.241086e+00	0.000000e+00
1.246601e+00	0.000000e+00
1.252116e+00	0.000000e+00
1.257631e+00	0.000000e+00
1.263146e+00	0.000000e+00
1.268661e+00	0.000000e+00
1.274176e+00	0.000000e+00
1.279692e+00	0.000000e+00
1.285207e+00	0.000000e+00
1.290722e+00	0.000000e+00
1.296237e+00	0.000000e+00
1.301752e+00	0.000000e+00
1.307267e+00	0.000000e+00
1.312782e+00	0.000000e+00
1.318297e+00	0.000000e+00
1.323812e+00	0.000000e+00
1.329327e+00	0.000000e+00
1.334842e+00	0.000000e+00
1.340357e+00	0.000000e+00
1.345872e+00	0.000000e+00
1.351387e+00	0.000000e+00
1.356902e+00	0.000000e+00
1.362417e+00	2.444834e-10
1.367932e+00	2.521408e-07
1.373447e+00	4.858308e-05
1.378961e+00	1.748941e-03
1.384476e+00	1.176287e-02
1.389991e+00	1.478086e-02
1.395506e+00	3.470038e-03
1.401021e+00	1.522008e-04
1.406536e+00	1.247233e-06
1.412051e+00	1.909531e-09
1.417565e+00	5.462028e-13
1.423080e+00	0.000000e+00
1.428595e+00	0.000000e+00
1.434110e+00	0.000000e+00
1.439625e+00	0.000000e+00
1.445139e+00	0.000000e+00
1.450654e+00	0.000000e+00
1.456169e+00	0.000000e+00
1.461684e+00	0.000000e+00
1.467198e+00	0.000000e+00
1.472713e+00	0.000000e+00
1.478228e+00	0.000000e+00
1.483742e+00	0.000000e+00
1.489257e+00	0.000000e+00
1.494772e+00	0.000000e+00
1.500286e+00	0.000000e+00
1.505801e+00	0.000000e+00
1.511316e+00	4.521245e-43
1.516830e+00	1.579456e-39
1.522345e+00	1.030874e-36
1.527859e+00	1.257047e-34
1.533374e+00	2.863819e-33
1.538888e+00	1.218955e-32
1.544403e+00	9.693446e-33
1.549918e+00	1.440180e-33
1.555432e+00	3.997638e-35
1.560947e+00	2.073186e-37
1.566461e+00	2.008729e-40
1.571975e+00	0.000000e+00
1.577490e+00	0.000000e+00
1.583004e+00	0.000000e+00
1.588519e+00	0.000000e+00
1.594033e+00	0.000000e+00
1.599548e+00	0.000000e+00
1.605062e+00	0.000000e+00
1.610576e+00	0.000000e+00
1.616091e+00	0.000000e+00
1.621605e+00	4.142188e-42
1.627120e+00	9.157638e-39
1.632634e+00	3.782555e-36
1.638148e+00	2.919008e-34
1.643662e+00	4.208559e-33
1.649177e+00	1.133652e-32
1.654691e+00	5.705244e-33
1.660205e+00	1.205739e-11
1.665720e+00	4.906085e-08
1.671234e+00	3.729622e-05
1.676748e+00	5.297156e-03
1.682262e+00	1.405623e-01
1.687776e+00	6.968561e-01
1.693291e+00	6.454543e-01
1.698805e+00	1.116956e-01
1.704319e+00	3.611227e-03
1.709833e+00	2.181331e-05
1.715347e+00	2.461709e-08
1.720861e+00	0.000000e+00
1.726375e+00	0.000000e+00
1.731889e+00	0.000000e+00
1.737403e+00	0.000000e+00
1.742918e+00	0.000000e+00
1.748432e+00	0.000000e+00
1.753946e+00	0.000000e+00
1.759460e+00	1.455192e-11
1.764974e+00	5.921092e-08
1.770488e+00	4.501234e-05
1.776002e+00	6.393071e-03
1.781515e+00	1.696429e-01
1.787029e+00	8.410268e-01
1.792543e+00	7.789906e-01
1.798057e+00	1.348040e-01
1.803571e+00	4.358344e-03
1.809085e+00	2.632621e-05
1.814599e+00	2.971005e-08
1.820113e+00	0.000000e+00
1.825627e+00	0.000000e+00
1.831140e+00	0.000000e+00
1.836654e+00	0.000000e+00
1.842168e+00	0.000000e+00
1.847682e+00	0.000000e+00
1.853195e+00	0.000000e+00
1.858709e+00	0.000000e+00
1.864223e+00	0.000000e+00
1.869737e+00	0.000000e+00
1.875250e+00	0.000000e+00
1.880764e+00	0.000000e+00
1.886278e+00	0.000000e+00
1.891791e+00	0.000000e+00
1.897305e+00	0.000000e+00
1.902819e+00	0.000000e+00
1.908332e+00	0.000000e+00
1.913846e+00	0.000000e+00
1.919359e+00	0.000000e+00
1.924873e+00	0.000000e+00
1.930386e+00	0.000000e+00
1.935900e+00	0.000000e+00
1.941413e+00	0.000000e+00
1.946927e+00	0.000000e+00
1.952440e+00	0.000000e+00
1.957954e+00	0.000000e+00
1.963467e+00	0.000000e+00
1.968981e+00	0.000000e+00
1.974494e+00	0.000000e+00
1.980007e+00	0.000000e+00
1.985521e+00	0.000000e+00
1.991034e+00	0.000000e+00
1.996547e+00	0.000000e+00
2.002061e+00	0.000000e+00
2.007574e+00	0.000000e+00
2.013087e+00	0.000000e+00
2.018601e+00	0.000000e+00
2.024114e+00	0.000000e+00
2.029627e+00	0.000000e+00
2.035140e+00	0.000000e+00
2.040654e+00	0.000000e+00
2.046167e+00	2.560972e-41
2.051680e+00	4.861162e-38
2.057193e+00	1.724454e-35
2.062706e+00	1.146816e-33
2.068219e+00	1.480369e-32
2.073732e+00	5.036675e-32
2.079246e+00	1.017322e-31
2.084759e+00	8.228346e-32
2.090272e+00	1.405897e-32
2.095785e+00	4.540324e-34
2.101298e+00	2.742278e-36
2.106811e+00	3.094728e-39
2.112324e+00	0.000000e+00
2.117837e+00	0.000000e+00
2.123350e+00	0.000000e+00
2.128863e+00	3.252892e-40
2.134375e+00	5.301019e-37
2.139888e+00	1.613977e-34
2.145401e+00	9.180857e-33
2.150914e+00	9.757025e-32
2.156427e+00	1.937313e-31
2.161940e+00	7.186712e-32
2.167453e+00	4.980912e-33
2.172965e+00	6.449643e-35
2.178478e+00	1.560309e-37
2.183991e+00	7.052348e-41
2.189504e+00	0.000000e+00
2.195016e+00	0.000000e+00
2.200529e+00	0.000000e+00
2.206042e+00	0.000000e+00
2.211554e+00	0.000000e+00
2.217067e+00	0.000000e+00
2.222580e+00	0.000000e+00
2.228092e+00	2.007481e-75
2.233605e+00	7.012955e-72
2.239117e+00	4.577189e-69
2.244630e+00	5.581421e-67
2.250142e+00	1.271566e-65
2.255655e+00	5.412291e-65
2.261168e+00	4.303993e-65
2.266680e+00	6.394553e-66
2.272192e+00	1.774994e-67
2.277705e+00	9.205169e-70
2.283217e+00	8.918972e-73
2.288730e+00	0.000000e+00
2.294242e+00	0.000000e+00
2.299754e+00	0.000000e+00
2.305267e+00	0.000000e+00
2.310779e+00	0.000000e+00
2.316291e+00	0.000000e+00
2.321804e+00	0.000000e+00
2.327316e+00	0.000000e+00
2.332828e+00	6.780696e-42
2.338340e+00	2.033724e-38
2.343853e+00	1.139614e-35
2.349365e+00	1.193086e-33
2.354877e+00	2.333640e-32
2.360389e+00	8.527939e-32
2.365901e+00	5.822407e-32
2.371413e+00	7.426926e-33
2.376926e+00	1.769962e-34
2.382438e+00	7.880736e-37
2.387950e+00	6.555681e-40
2.393462e+00	0.000000e+00
2.398974e+00	0.000000e+00
2.404486e+00	0.000000e+00
2.409998e+00	0.000000e+00
2.415510e+00	0.000000e+00
2.421022e+00	0.000000e+00
2.426533e+00	0.000000e+00
2.432045e+00	0.000000e+00
2.437557e+00	0.000000e+00
2.443069e+00	0.000000e+00
2.448581e+00	0.000000e+00
2.454093e+00	0.000000e+00
2.459605e+00	0.000000e+00
2.465116e+00	0.000000e+00
2.470628e+00	0.000000e+00
2.476140e+00	0.000000e+00
2.481651e+00	0.000000e+00
2.487163e+00	0.000000e+00
2.492675e+00	0.000000e+00
2.498186e+00	0.000000e+00
2.503698e+00	0.000000e+00
2.509210e+00	0.000000e+00
2.514721e+00	0.000000e+00
2.520233e+00	0.000000e+00
2.525744e+00	0.000000e+00
2.531256e+00	0.000000e+00
2.536767e+00	0.000000e+00
2.542279e+00	0.000000e+00
2.547790e+00	0.000000e+00
2.553302e+00	0.000000e+00
2.558813e+00	0.000000e+00
2.564325e+00	1.456129e-09
2.569836e+00	1.749145e-06
2.575347e+00	3.925542e-04
2.580859e+00	1.645969e-02
2.586370e+00	1.289412e-01
2.591881e+00	1.887166e-01
2.597393e+00	5.160321e-02
2.602904e+00	2.636279e-03
2.608415e+00	2.516253e-05
2.613926e+00	4.487094e-08
2.619437e+00	1.494942e-11
2.624949e+00	4.248349e-09
2.630460e+00	3.761939e-06
2.635971e+00	6.225989e-04
2.641482e+00	1.930275e-02
2.646993e+00	1.139787e-01
2.652504e+00	1.426825e-01
2.658015e+00	5.761855e-02
2.663526e+00	1.006121e-02
2.669037e+00	4.739407e-04
2.674548e+00	4.470968e-06
2.680059e+00	7.959899e-09
2.685570e+00	2.651270e-12
2.691081e+00	0.000000e+00
2.696592e+00	0.000000e+00
2.702103e+00	0.000000e+00
2.707613e+00	0.000000e+00
2.713124e+00	0.000000e+00
2.718635e+00	0.000000e+00
2.724146e+00	0.000000e+00
2.729657e+00	0.000000e+00
2.735167e+00	0.000000e+00
2.740678e+00	0.000000e+00
2.746189e+00	7.834748e-12
2.751699e+00	3.187915e-08
2.757210e+00	2.423463e-05
2.762721e+00	3.442028e-03
2.768231e+00	9.133568e-02
2.773742e+00	4.528087e-01
2.779252e+00	4.194084e-01
2.784763e+00	7.257845e-02
2.790273e+00	2.346532e-03
2.795784e+00	1.417403e-05
2.801294e+00	1.599589e-08
2.806805e+00	0.000000e+00
2.812315e+00	0.000000e+00
2.817825e+00	0.000000e+00
2.823336e+00	0.000000e+00
2.828846e+00	0.000000e+00
2.834356e+00	0.000000e+00
2.839867e+00	0.000000e+00
2.845377e+00	0.000000e+00
2.850887e+00	0.000000e+00
2.856397e+00	0.000000e+00
2.861907e+00	0.000000e+00
2.867418e+00	0.000000e+00
2.872928e+00	0.000000e+00
2.878438e+00	0.000000e+00
2.883948e+00	0.000000e+00
2.889458e+00	0.000000e+00
2.894968e+00	0.000000e+00
2.900478e+00	0.000000e+00
2.905988e+00	0.000000e+00
2.911498e+00	0.000000e+00
2.917008e+00	0.000000e+00
2.922518e+00	0.000000e+00
2.928028e+00	0.000000e+00
2.933538e+00	0.000000e+00
2.939048e+00	0.000000e+00
2.944557e+00	0.000000e+00
2.950067e+00	0.000000e+00
2.955577e+00	0.000000e+00
2.961087e+00	0.000000e+00
2.966596e+00	0.000000e+00
2.972106e+00	0.000000e+00
2.977616e+00	0.000000e+00
2.983126e+00	0.000000e+00
2.988635e+00	0.000000e+00
2.994145e+00	0.000000e+00
2.999654e+00	0.000000e+00
3.005164e+00	0.000000e+00
3.010673e+00	0.000000e+00
3.016183e+00	0.000000e+00
3.021692e+00	0.000000e+00
3.027202e+00	0.000000e+00
3.032711e+00	0.000000e+00
3.038221e+00	0.000000e+00
3.043730e+00	5.138319e-41
3.049239e+00	9.753101e-38
3.054749e+00	3.764683e-10
3.060258e+00	7.145787e-07
3.065767e+00	2.534078e-04
3.071277e+00	1.678951e-02
3.076786e+00	2.078280e-01
3.082295e+00	4.806383e-01
3.087804e+00	2.076734e-01
3.093313e+00	1.676453e-02
3.098823e+00	2.528426e-04
3.104332e+00	7.124547e-07
3.109841e+00	3.750700e-10
3.115350e+00	0.000000e+00
3.120859e+00	0.000000e+00
3.126368e+00	0.000000e+00
3.131877e+00	9.076111e-42
3.137386e+00	1.722747e-38
3.142895e+00	6.109299e-36
3.148404e+00	4.047710e-34
3.153912e+00	5.010468e-33
3.159421e+00	1.159589e-32
3.164930e+00	5.416277e-33
3.170439e+00	4.141215e-33
3.175948e+00	6.376673e-33
3.181456e+00	2.028995e-33
3.186965e+00	1.207324e-34
3.192474e+00	1.342205e-36
3.197982e+00	2.787801e-39
3.203491e+00	2.000286e-40
3.209000e+00	2.389807e-37
3.214508e+00	5.363356e-35
3.220017e+00	2.248841e-33
3.225525e+00	1.761688e-32
3.231034e+00	2.578382e-32
3.236542e+00	7.050400e-33
3.242051e+00	3.601873e-34
3.247559e+00	3.437884e-36
3.253068e+00	6.130590e-39
3.258576e+00	2.042497e-42
3.264084e+00	0.000000e+00
3.269593e+00	5.525970e-12
3.275101e+00	2.248486e-08
3.280609e+00	1.709306e-05
3.286117e+00	2.427716e-03
3.291626e+00	6.442048e-02
3.297134e+00	3.193730e-01
3.302642e+00	2.958153e-01
3.308150e+00	5.119071e-02
3.313658e+00	1.655045e-03
3.319166e+00	9.997162e-06
3.324674e+00	1.128215e-08
3.330182e+00	0.000000e+00
3.335690e+00	0.000000e+00
3.341198e+00	0.000000e+00
3.346706e+00	4.467391e-40
3.352214e+00	1.024834e-12
3.357722e+00	2.265724e-09
3.363230e+00	9.358557e-07
3.368737e+00	7.222023e-05
3.374245e+00	1.041255e-03
3.379753e+00	2.804809e-03
3.385261e+00	1.411555e-03
3.390768e+00	1.327212e-04
3.396276e+00	2.331477e-06
3.401784e+00	7.651914e-09
3.407291e+00	4.691991e-12
3.412799e+00	0.000000e+00
3.418307e+00	0.000000e+00
3.423814e+00	0.000000e+00
3.429322e+00	0.000000e+00
3.434829e+00	0.000000e+00
3.440337e+00	3.494478e-43
3.445844e+00	1.421883e-39
3.451351e+00	1.080921e-36
3.456859e+00	1.535224e-34
3.462366e+00	4.073782e-33
3.467873e+00	2.019631e-32
3.473381e+00	1.870658e-32
3.478888e+00	3.237959e-33
3.484395e+00	1.658581e-34
3.489902e+00	8.829622e-34
3.495410e+00	2.376717e-33
3.500917e+00	1.196112e-33
3.506424e+00	1.124642e-34
3.511931e+00	1.975628e-36
3.517438e+00	6.484017e-39
3.522945e+00	3.975861e-42
3.528452e+00	0.000000e+00
3.533959e+00	3.680097e-12
3.539466e+00	1.497411e-08
3.544973e+00	1.138337e-05
3.550480e+00	1.616772e-03
3.555986e+00	4.290177e-02
3.561493e+00	2.127086e-01
3.567000e+00	1.981850e-01
3.572507e+00	4.895073e-02
3.578014e+00	3.627128e-02
3.583520e+00	1.575122e-02
3.589027e+00	1.340994e-03
3.594534e+00	2.189296e-05
3.600040e+00	6.911718e-08
3.605547e+00	4.256535e-11
3.611053e+00	0.000000e+00
3.616560e+00	5.943883e-41
3.622066e+00	5.262983e-38
3.627573e+00	8.706466e-36
3.633079e+00	2.690915e-34
3.638586e+00	1.553840e-33
3.644092e+00	1.676334e-33
3.649598e+00	3.378805e-34
3.655105e+00	1.272371e-35
3.660611e+00	8.951848e-38
3.666117e+00	1.176684e-40
3.671623e+00	2.889714e-44
3.677129e+00	2.256409e-12
3.682636e+00	9.181199e-09
3.688142e+00	6.979578e-06
3.693648e+00	9.913046e-04
3.699154e+00	2.630469e-02
3.704660e+00	1.304090e-01
3.710166e+00	1.207897e-01
3.715672e+00	2.090261e-02
3.721178e+00	6.758015e-04
3.726684e+00	4.082122e-06
3.732190e+00	4.606818e-09
3.737696e+00	3.441307e-36
3.743201e+00	7.245854e-36
3.748707e+00	7.579437e-34
3.754213e+00	1.482515e-32
3.759719e+00	5.417630e-32
3.765224e+00	3.698859e-32
3.770730e+00	4.448000e-10
3.776236e+00	5.343065e-07
3.781741e+00	1.199125e-04
3.787247e+00	5.027897e-03
3.792752e+00	3.938734e-02
3.798258e+00	5.764677e-02
3.803763e+00	1.576309e-02
3.809269e+00	8.052971e-04
3.814774e+00	7.686521e-06
3.820280e+00	3.771924e-07
3.825785e+00	1.289013e-04
3.831290e+00	8.540342e-03
3.836796e+00	1.057162e-01
3.842301e+00	2.444870e-01
3.847806e+00	1.056375e-01
3.853311e+00	8.527639e-03
3.858816e+00	1.286138e-04
3.864321e+00	3.624053e-07
3.869827e+00	1.907874e-10
3.875332e+00	2.990321e-39
3.880837e+00	1.112355e-36
3.886342e+00	8.726862e-35
3.891847e+00	1.742958e-33
3.897352e+00	1.007768e-32
3.902856e+00	1.466236e-32
3.908361e+00	4.466644e-33
3.913866e+00	2.627188e-34
3.919371e+00	2.912058e-36
3.924876e+00	6.043890e-39
3.930380e+00	2.344751e-42
3.935885e+00	0.000000e+00
3.941390e+00	0.000000e+00
3.946895e+00	0.000000e+00
3.952399e+00	0.000000e+00
3.957904e+00	0.000000e+00
3.963408e+00	0.000000e+00
3.968913e+00	0.000000e+00
3.974417e+00	0.000000e+00
3.979922e+00	0.000000e+00
3.985426e+00	0.000000e+00
3.990930e+00	0.000000e+00
3.996435e+00	0.000000e+00
4.001939e+00	0.000000e+00
4.007443e+00	0.000000e+00
4.012948e+00	0.000000e+00
4.018452e+00	0.000000e+00
4.023956e+00	0.000000e+00
4.029460e+00	0.000000e+00
4.034964e+00	0.000000e+00
4.040468e+00	3.340324e-12
4.045972e+00	8.601501e-09
4.051476e+00	4.138168e-06
4.056980e+00	3.719547e-04
4.062484e+00	6.246262e-03
4.067988e+00	1.959740e-02
4.073492e+00	1.148748e-02
4.078996e+00	1.258055e-03
4.084500e+00	2.574081e-05
4.090004e+00	9.839957e-08
4.095507e+00	7.027685e-11
4.101011e+00	0.000000e+00
4.106515e+00	0.000000e+00
4.112018e+00	1.139563e-40
4.117522e+00	2.519371e-37
4.123026e+00	7.679418e-09
4.128529e+00	6.799705e-06
4.134033e+00	1.124864e-03
4.139536e+00	3.476627e-02
4.145040e+00	2.007544e-01
4.150543e+00	2.166246e-01
4.156046e+00	4.483201e-02
4.161550e+00	7.485439e-03
4.167053e+00	5.422230e-03
4.172556e+00	9.364000e-04
4.178059e+00	5.979233e-05
4.183563e+00	2.278281e-03
4.189066e+00	3.284510e-02
4.194569e+00	8.847424e-02
4.200072e+00	4.452576e-02
4.205575e+00	4.186527e-03
4.211078e+00	7.354357e-05
4.216581e+00	2.413702e-07
4.222084e+00	1.480031e-10
4.227587e+00	0.000000e+00
4.233090e+00	0.000000e+00
4.238593e+00	0.000000e+00
4.244096e+00	0.000000e+00
4.249598e+00	0.000000e+00
4.255101e+00	0.000000e+00
4.260604e+00	0.000000e+00
4.266106e+00	0.000000e+00
4.271609e+00	0.000000e+00
4.277112e+00	0.000000e+00
4.282614e+00	7.328760e-12
4.288117e+00	2.560237e-08
4.293619e+00	1.671006e-05
4.299122e+00	2.037623e-03
4.304624e+00	4.642137e-02
4.310127e+00	1.975879e-01
4.315629e+00	1.571269e-01
4.321131e+00	2.334475e-02
4.326634e+00	6.480014e-04
4.332136e+00	3.360554e-06
4.337638e+00	3.256071e-09
4.343140e+00	0.000000e+00
4.348642e+00	0.000000e+00
4.354144e+00	0.000000e+00
4.359646e+00	0.000000e+00
4.365148e+00	0.000000e+00
4.370650e+00	0.000000e+00
4.376152e+00	0.000000e+00
4.381654e+00	0.000000e+00
4.387156e+00	0.000000e+00
4.392658e+00	0.000000e+00
4.398160e+00	0.000000e+00
4.403662e+00	0.000000e+00
4.409163e+00	0.000000e+00
4.414665e+00	1.064842e-39
4.420167e+00	1.098194e-36
4.425668e+00	2.116025e-34
4.431170e+00	7.617473e-33
4.436672e+00	5.123293e-32
4.442173e+00	6.437772e-32
4.447675e+00	1.511776e-32
4.453176e+00	9.336740e-34
4.458677e+00	3.357380e-33
4.464179e+00	7.813832e-33
4.469680e+00	5.970070e-33
4.475181e+00	2.080182e-32
4.480683e+00	3.005363e-32
4.486184e+00	1.710617e-11
4.491685e+00	5.130626e-08
4.497186e+00	2.874989e-05
4.502687e+00	3.009887e-03
4.508188e+00	5.887247e-02
4.513690e+00	2.151407e-01
4.519191e+00	1.468862e-01
4.524691e+00	1.873646e-02
4.530192e+00	4.465214e-04
4.535693e+00	1.988132e-06
4.541194e+00	1.653851e-09
4.546695e+00	5.521384e-38
4.552196e+00	1.681073e-35
4.557696e+00	9.563077e-34
4.563197e+00	1.017994e-32
4.568698e+00	2.116349e-32
4.574198e+00	1.795379e-32
4.579699e+00	2.130425e-32
4.585200e+00	7.717351e-33
4.590700e+00	5.344190e-34
4.596201e+00	6.919844e-36
4.601701e+00	2.625549e-38
4.607201e+00	2.896968e-36
4.612702e+00	1.647891e-34
4.618202e+00	1.751323e-33
4.623702e+00	3.484209e-33
4.629203e+00	1.908951e-33
4.634703e+00	1.048420e-32
4.640203e+00	3.261441e-32
4.645703e+00	1.056799e-12
4.651203e+00	3.691833e-09
4.656703e+00	2.409571e-06
4.662203e+00	2.938230e-04
4.667703e+00	6.693910e-03
4.673203e+00	2.849195e-02
4.678703e+00	2.265753e-02
4.684203e+00	3.366287e-03
4.689703e+00	9.344108e-05
4.695203e+00	4.845884e-07
4.700702e+00	1.188612e-09
4.706202e+00	3.459531e-07
4.711702e+00	3.109695e-05
4.717201e+00	5.233678e-04
4.722701e+00	1.833039e-03
4.728201e+00	6.977532e-03
4.733700e+00	3.485068e-02
4.739199e+00	3.748677e-02
4.744699e+00	7.555376e-03
4.750198e+00	2.845158e-04
4.755698e+00	2.001729e-06
4.761197e+00	2.631190e-09
4.766696e+00	6.461709e-13
4.772195e+00	2.074158e-35
4.777695e+00	1.374231e-33
4.783194e+00	1.701085e-32
4.788693e+00	3.934054e-32
4.794192e+00	1.699820e-32
4.799691e+00	1.372187e-33
4.805190e+00	2.069734e-35
4.810689e+00	7.729575e-37
4.816188e+00	4.734860e-35
4.821687e+00	5.861018e-34
4.827186e+00	1.355462e-33
4.832684e+00	5.856658e-34
4.838183e+00	4.731689e-35
4.843682e+00	8.177609e-36
4.849181e+00	2.687185e-34
4.854679e+00	1.807309e-33
4.860178e+00	2.271009e-33
4.865676e+00	5.331549e-34
4.871175e+00	2.338493e-35
4.876673e+00	1.916315e-37
4.882172e+00	3.198675e-40
4.887670e+00	4.314791e-38
4.893169e+00	1.313702e-35
4.898667e+00	1.420476e-10
4.904165e+00	2.696222e-07
4.909663e+00	9.561487e-05
4.915162e+00	6.334954e-03
4.920660e+00	7.841689e-02
4.926158e+00	1.813527e-01
4.931656e+00	7.835855e-02
4.937154e+00	6.325532e-03
4.942652e+00	9.540164e-05
4.948150e+00	2.688207e-07
4.953648e+00	1.415200e-10
4.959146e+00	1.107975e-32
4.964644e+00	7.456625e-33
4.970141e+00	1.254866e-11
4.975639e+00	2.774285e-08
4.981137e+00	1.145916e-05
4.986634e+00	8.843067e-04
4.992132e+00	1.274973e-02
4.997630e+00	3.434372e-02
5.003127e+00	1.728390e-02
5.008625e+00	1.625173e-03
5.014122e+00	4.855376e-05
5.019620e+00	1.325575e-03
5.025117e+00	1.640741e-02
5.030614e+00	3.794497e-02
5.036112e+00	1.639520e-02
5.041609e+00	1.323510e-03
5.047106e+00	1.996607e-05
5.052603e+00	2.801390e-06
5.058100e+00	2.873949e-04
5.063597e+00	5.621357e-03
5.069094e+00	2.054241e-02
5.074591e+00	1.402524e-02
5.080088e+00	1.795381e-03
5.085585e+00	5.488583e-04
5.091082e+00	8.195403e-03
5.096579e+00	3.160407e-02
5.102076e+00	3.482507e-02
5.107572e+00	1.029301e-02
5.113069e+00	6.673864e-04
5.118566e+00	2.041997e-05
5.124062e+00	2.003833e-04
5.129559e+00	6.286305e-04
5.135056e+00	3.684868e-04
5.140552e+00	4.035492e-05
5.146049e+00	8.256942e-07
5.151545e+00	3.156582e-09
5.157041e+00	6.848953e-10
5.162538e+00	4.455436e-07
5.168034e+00	5.432955e-05
5.173530e+00	1.237742e-03
5.179026e+00	5.268324e-03
5.184522e+00	4.189507e-03
5.190019e+00	6.224457e-04
5.195515e+00	1.727779e-05
5.201011e+00	8.960311e-08
5.206507e+00	8.681727e-11
5.212003e+00	1.447897e-36
5.217498e+00	1.515834e-34
5.222994e+00	2.964926e-33
5.228490e+00	1.083488e-32
5.233986e+00	7.397459e-33
5.239482e+00	9.436026e-34
5.244977e+00	2.248764e-35
5.250473e+00	1.001260e-37
5.255968e+00	8.329096e-41
5.261464e+00	0.000000e+00
5.266959e+00	0.000000e+00
5.272455e+00	6.708180e-11
5.277950e+00	1.483059e-07
5.283446e+00	6.125764e-05
5.288941e+00	4.727269e-03
5.294436e+00	6.815707e-02
5.299932e+00	1.836413e-01
5.305427e+00	9.350985e-02
5.310922e+00	1.343208e-02
5.316417e+00	3.925667e-03
5.321912e+00	5.610736e-04
5.327407e+00	1.556063e-05
5.332902e+00	8.069630e-08
5.338397e+00	8.592829e-11
5.343892e+00	1.714051e-08
5.349387e+00	7.100939e-06
5.354882e+00	5.527091e-04
5.360376e+00	8.167065e-03
5.365871e+00	2.355237e-02
5.371366e+00	1.412582e-02
5.376860e+00	1.949660e-03
5.382355e+00	6.599905e-05
5.387849e+00	5.196529e-07
5.393344e+00	8.590414e-10
5.398838e+00	2.743950e-13
5.404333e+00	2.779474e-35
5.409827e+00	3.599352e-37
5.415321e+00	5.577198e-38
5.420816e+00	1.946939e-35
5.426310e+00	1.289942e-33
5.431804e+00	1.596748e-32
5.437298e+00	3.692758e-32
5.442792e+00	1.595561e-32
5.448286e+00	1.288024e-33
5.453780e+00	1.942597e-35
5.459274e+00	5.473809e-38
5.464768e+00	2.881673e-41
5.470262e+00	0.000000e+00
5.475756e+00	0.000000e+00
5.481250e+00	0.000000e+00
5.486743e+00	0.000000e+00
5.492237e+00	0.000000e+00
5.497731e+00	0.000000e+00
5.503224e+00	4.269560e-42
5.508718e+00	1.280563e-38
5.514211e+00	7.175738e-36
5.519705e+00	7.512432e-34
5.525198e+00	2.982610e-11
5.530691e+00	4.860559e-08
5.536185e+00	1.479872e-05
5.541678e+00	8.418022e-04
5.547171e+00	8.946316e-03
5.552664e+00	1.776342e-02
5.558158e+00	6.589570e-03
5.563651e+00	4.567050e-04
5.569144e+00	5.913744e-06
5.574637e+00	1.430663e-08
5.580130e+00	6.466371e-12
5.585622e+00	7.477429e-33
5.591115e+00	4.383073e-33
5.596608e+00	4.800134e-34
5.602101e+00	9.821461e-36
5.607594e+00	3.754456e-38
5.613086e+00	1.856897e-11
5.618579e+00	2.598038e-08
5.624071e+00	6.791275e-06
5.629564e+00	3.316694e-04
5.635056e+00	3.026269e-03
5.640549e+00	5.158909e-03
5.646041e+00	1.643071e-03
5.651534e+00	9.776942e-05
5.657026e+00	1.086921e-06
5.662518e+00	2.257568e-09
5.668010e+00	8.760562e-13
5.673502e+00	5.369061e-33
5.678995e+00	6.950190e-33
5.684487e+00	3.663757e-33
5.689979e+00	9.445339e-33
5.695471e+00	4.499761e-11
5.700963e+00	7.332958e-08
5.706454e+00	2.232631e-05
5.711946e+00	1.269998e-03
5.717438e+00	1.349700e-02
5.722930e+00	2.679906e-02
5.728421e+00	9.941457e-03
5.733913e+00	6.890150e-04
5.739405e+00	8.921862e-06
5.744896e+00	2.158393e-08
5.750388e+00	9.755591e-12
5.755879e+00	3.019537e-10
5.761371e+00	2.673635e-07
5.766862e+00	4.422950e-05
5.772353e+00	1.367005e-03
5.777844e+00	7.893623e-03
5.783336e+00	8.515904e-03
5.788827e+00	1.716458e-03
5.794318e+00	6.463742e-05
5.799809e+00	4.547606e-07
5.805300e+00	5.977642e-10
5.810791e+00	1.467997e-13
5.816282e+00	7.706045e-36
5.821773e+00	2.773585e-34
5.827264e+00	1.865539e-33
5.832754e+00	2.364715e-33
5.838245e+00	1.294421e-33
5.843736e+00	5.734405e-12
5.849226e+00	1.476638e-08
5.854717e+00	7.104111e-06
5.860207e+00	6.385808e-04
5.865698e+00	1.073170e-02
5.871188e+00	3.400440e-02
5.876679e+00	2.254979e-02
5.882169e+00	6.300197e-03
5.887659e+00	1.176371e-03
5.893150e+00	5.800924e-05
5.898640e+00	5.521898e-07
5.904130e+00	9.844745e-10
5.909620e+00	3.279923e-13
5.915110e+00	0.000000e+00
5.920600e+00	0.000000e+00
5.926090e+00	0.000000e+00
5.931580e+00	0.000000e+00
5.937070e+00	0.000000e+00
5.942560e+00	0.000000e+00
5.948049e+00	0.000000e+00
5.953539e+00	0.000000e+00
5.959029e+00	1.833384e-12
5.964518e+00	2.565616e-09
5.970008e+00	6.721894e-07
5.975497e+00	3.383125e-05
5.980987e+00	4.310133e-04
5.986476e+00	3.521573e-03
5.991966e+00	1.298341e-02
5.997455e+00	1.020539e-02
6.002944e+00	1.514914e-03
6.008433e+00	4.204809e-05
6.013922e+00	2.180615e-07
6.019412e+00	7.565426e-10
6.024901e+00	5.629653e-07
6.030390e+00	1.089074e-04
6.035879e+00	3.992342e-03
6.041368e+00	2.907010e-02
6.046856e+00	4.934054e-02
6.052345e+00	2.540593e-02
6.057834e+00	3.982940e-03
6.063323e+00	2.692219e-03
6.068811e+00	1.475652e-02
6.074300e+00	1.591880e-02
6.079788e+00	3.208580e-03
6.085277e+00	1.208269e-04
6.090765e+00	8.500852e-07
6.096254e+00	1.117402e-09
6.101742e+00	2.744130e-13
6.107230e+00	0.000000e+00
6.112719e+00	8.289724e-14
6.118207e+00	3.373041e-10
6.123695e+00	2.564197e-07
6.129183e+00	3.641911e-05
6.134671e+00	9.663968e-04
6.140159e+00	4.791041e-03
6.145647e+00	4.438950e-03
6.151135e+00	9.538961e-04
6.156623e+00	4.959468e-03
6.162111e+00	2.446428e-02
6.167598e+00	2.265959e-02
6.173086e+00	3.921546e-03
6.178574e+00	1.649437e-04
6.184061e+00	8.702792e-04
6.189549e+00	3.700996e-03
6.195036e+00	2.943127e-03
6.200524e+00	4.372678e-04
6.206011e+00	1.213764e-05
6.211499e+00	6.294615e-08
6.216986e+00	6.098910e-11
6.222473e+00	2.004040e-32
6.227960e+00	1.147769e-32
6.233447e+00	3.091391e-32
6.238935e+00	6.071181e-32
6.244422e+00	2.551617e-32
6.249909e+00	4.152705e-33
6.255395e+00	4.080066e-34
6.260882e+00	1.081986e-35
6.266369e+00	5.588362e-38
6.271856e+00	5.412501e-41
6.277343e+00	0.000000e+00
6.282829e+00	0.000000e+00
6.288316e+00	0.000000e+00
6.293802e+00	7.457193e-12
6.299289e+00	6.602937e-09
6.304775e+00	1.092313e-06
6.310262e+00	3.376021e-05
6.315748e+00	1.949447e-04
6.321234e+00	2.103128e-04
6.326721e+00	4.239275e-05
6.332207e+00	3.076474e-06
6.337693e+00	1.805015e-04
6.343179e+00	4.111951e-03
6.348665e+00	1.750210e-02
6.354151e+00	1.391812e-02
6.359637e+00	2.067851e-03
6.365123e+00	5.739921e-05
6.370609e+00	2.976739e-07
6.376095e+00	2.884190e-10
6.381580e+00	1.857506e-34
6.387066e+00	8.025882e-35
6.392552e+00	8.120868e-11
6.398037e+00	1.136214e-07
6.403523e+00	2.970066e-05
6.409008e+00	1.450508e-03
6.414494e+00	1.323503e-02
6.419979e+00	2.257654e-02
6.425464e+00	7.802805e-03
6.430949e+00	6.669570e-03
6.436435e+00	1.514340e-02
6.441920e+00	7.985650e-03
6.447405e+00	1.555614e-03
6.452890e+00	1.340143e-02
6.458375e+00	5.125516e-02
6.463860e+00	3.987502e-02
6.469345e+00	6.185825e-03
6.474829e+00	1.874418e-04
6.480314e+00	1.091031e-06
6.485799e+00	1.206006e-09
6.491284e+00	5.510405e-36
6.496768e+00	2.690322e-34
6.502253e+00	2.454746e-33
6.507737e+00	4.184630e-33
6.513222e+00	1.333554e-33
6.518706e+00	1.497694e-34
6.524190e+00	1.184190e-33
6.529675e+00	3.712586e-33
6.535159e+00	2.176220e-33
6.540643e+00	2.384939e-34
6.546127e+00	4.792461e-35
6.551611e+00	2.102388e-33
6.557095e+00	1.918277e-32
6.562579e+00	3.270104e-32
6.568063e+00	1.041502e-32
6.573547e+00	1.534423e-10
6.579031e+00	1.843194e-07
6.584515e+00	4.136613e-05
6.589998e+00	1.734470e-03
6.595482e+00	1.358742e-02
6.600965e+00	1.988637e-02
6.606449e+00	5.437784e-03
6.611932e+00	2.778028e-04
6.617416e+00	2.651548e-06
6.622899e+00	4.768339e-09
6.628382e+00	5.594231e-08
6.633866e+00	1.463037e-05
6.639349e+00	7.175882e-04
6.644832e+00	6.784959e-03
6.650315e+00	1.498959e-02
6.655798e+00	1.399509e-02
6.661281e+00	5.473361e-03
6.666764e+00	4.971797e-04
6.672247e+00	8.697570e-06
6.677730e+00	2.853184e-08
6.683212e+00	1.397092e-09
6.688695e+00	7.733549e-07
6.694178e+00	8.115045e-05
6.699660e+00	1.609995e-03
6.705143e+00	6.401010e-03
6.710625e+00	6.573049e-03
6.716108e+00	2.590160e-03
6.721590e+00	3.219851e-04
6.727072e+00	8.720117e-06
6.732555e+00	4.851545e-06
6.738037e+00	6.931742e-05
6.743519e+00	1.929299e-04
6.749001e+00	6.553537e-04
6.754483e+00	9.436509e-03
6.759965e+00	2.957912e-02
6.765447e+00	1.733907e-02
6.770929e+00	2.025944e-03
6.776411e+00	4.615159e-03
6.781892e+00	3.077907e-02
6.787374e+00	3.867585e-02
6.792856e+00	9.080084e-03
6.798337e+00	4.518705e-04
6.803819e+00	1.660483e-03
6.809300e+00	9.569437e-03
6.814782e+00	1.032382e-02
6.820263e+00	2.080861e-03
6.825744e+00	7.835989e-05
6.831226e+00	5.513059e-07
6.836707e+00	7.246690e-10
6.842188e+00	1.779651e-13
6.847669e+00	0.000000e+00
6.853150e+00	0.000000e+00
6.858631e+00	0.000000e+00
6.864112e+00	0.000000e+00
6.869593e+00	0.000000e+00
6.875074e+00	0.000000e+00
6.880554e+00	1.784019e-40
6.886035e+00	2.779330e-12
6.891516e+00	6.144603e-09
6.896996e+00	2.538024e-06
6.902477e+00	1.958600e-04
6.907957e+00	2.823864e-03
6.913437e+00	7.606592e-03
6.918918e+00	3.828177e-03
6.924398e+00	3.659742e-04
6.929878e+00	1.783612e-04
6.935358e+00	1.432112e-03
6.940839e+00	2.672285e-03
6.946319e+00	9.774971e-04
6.951799e+00	6.753918e-05
6.957279e+00	8.739585e-07
6.962758e+00	2.115056e-09
6.968238e+00	3.737370e-09
6.973718e+00	2.438669e-06
6.979198e+00	2.973711e-04
6.984677e+00	6.774744e-03
6.990157e+00	2.883601e-02
6.995636e+00	2.293114e-02
7.001116e+00	3.406937e-03
7.006595e+00	9.456945e-05
7.012075e+00	4.904398e-07
7.017554e+00	4.751916e-10
7.023033e+00	3.563857e-33
7.028512e+00	4.507829e-33
7.033992e+00	2.123754e-33
7.039471e+00	7.259201e-33
7.044950e+00	9.064309e-33
7.050429e+00	2.158640e-33
7.055907e+00	1.045272e-33
7.061386e+00	1.713732e-12
7.066865e+00	4.412944e-09
7.072344e+00	2.123060e-06
7.077822e+00	1.908289e-04
7.083301e+00	3.204604e-03
7.088780e+00	1.005432e-02
7.094258e+00	5.893579e-03
7.099736e+00	6.454368e-04
7.105215e+00	1.320622e-05
7.110693e+00	8.737328e-08
7.116171e+00	3.862130e-06
7.121649e+00	7.554139e-05
7.127128e+00	2.760548e-04
7.132606e+00	1.884780e-04
7.138084e+00	2.622771e-05
7.143562e+00	3.222376e-04
7.149040e+00	9.809195e-03
7.154517e+00	6.301440e-02
7.159995e+00	8.485806e-02
7.165473e+00	2.345478e-02
7.170950e+00	1.298484e-03
7.176428e+00	1.412124e-05
7.181906e+00	2.977731e-08
7.187383e+00	1.201339e-11
7.192861e+00	3.651248e-42
7.198338e+00	1.550718e-41
7.203815e+00	5.274949e-12
7.209292e+00	8.596230e-09
7.214770e+00	2.617254e-06
7.220247e+00	1.488785e-04
7.225724e+00	1.582217e-03
7.231201e+00	3.141582e-03
7.236678e+00	1.165410e-03
7.242155e+00	8.081798e-05
7.247631e+00	1.756951e-05
7.253108e+00	1.094774e-03
7.258585e+00	1.355157e-02
7.264061e+00	3.134075e-02
7.269538e+00	1.361945e-02
7.275015e+00	3.899616e-03
7.280491e+00	1.889322e-02
7.285967e+00	2.384586e-02
7.291444e+00	8.060730e-03
7.296920e+00	9.352587e-03
7.302396e+00	6.221017e-03
7.307872e+00	8.232811e-04
7.313348e+00	5.233262e-04
7.318825e+00	1.582688e-03
7.324300e+00	9.276811e-04
7.329776e+00	1.015952e-04
7.335252e+00	2.078720e-06
7.340728e+00	7.946337e-09
7.346204e+00	5.675264e-12
7.351679e+00	1.674418e-42
7.357155e+00	0.000000e+00
7.362631e+00	0.000000e+00
7.368106e+00	0.000000e+00
7.373582e+00	0.000000e+00
7.379057e+00	0.000000e+00
7.384532e+00	9.064722e-12
7.390007e+00	1.477951e-08
7.395483e+00	4.504112e-06
7.400958e+00	2.569150e-04
7.406433e+00	2.752187e-03
7.411908e+00	5.590531e-03
7.417383e+00	2.209714e-03
7.422858e+00	1.811651e-04
7.428332e+00	4.562083e-05
7.433807e+00	5.230325e-04
7.439282e+00	1.209568e-03
7.444756e+00	5.226280e-04
7.450231e+00	4.218984e-05
7.455706e+00	9.732478e-07
7.461180e+00	4.785821e-05
7.466654e+00	1.269890e-03
7.472129e+00	6.295649e-03
7.477603e+00	5.831267e-03
7.483077e+00	1.009098e-03
7.488551e+00	3.262512e-05
7.494025e+00	1.970706e-07
7.499499e+00	4.463224e-09
7.504973e+00	2.767885e-06
7.510447e+00	3.375158e-04
7.515921e+00	7.689324e-03
7.521395e+00	3.272883e-02
7.526869e+00	2.602680e-02
7.532342e+00	3.866869e-03
7.537816e+00	1.073362e-04
7.543289e+00	5.566485e-07
7.548763e+00	5.393418e-10
7.554236e+00	9.911984e-39
7.559709e+00	1.911340e-15
7.565183e+00	8.037692e-12
7.570656e+00	6.765375e-09
7.576129e+00	1.351550e-06
7.581602e+00	8.237328e-05
7.587075e+00	1.520019e-03
7.592548e+00	6.828400e-03
7.598021e+00	6.593699e-03
7.603494e+00	1.566725e-03
7.608967e+00	2.849479e-03
7.614439e+00	5.556076e-03
7.619912e+00	2.060952e-03
7.625384e+00	1.428389e-04
7.630857e+00	1.849580e-06
7.636329e+00	4.474537e-09
7.641802e+00	2.022420e-12
7.647274e+00	2.131098e-34
7.652746e+00	2.034072e-36
7.658219e+00	5.500273e-12
7.663691e+00	8.963425e-09
7.669163e+00	2.729052e-06
7.674635e+00	1.552379e-04
7.680107e+00	1.649803e-03
7.685579e+00	3.275777e-03
7.691050e+00	1.215192e-03
7.696522e+00	8.422160e-05
7.701994e+00	1.090562e-06
7.707465e+00	2.638419e-09
7.712937e+00	3.937510e-10
7.718409e+00	2.562136e-07
7.723880e+00	3.124267e-05
7.729351e+00	7.117742e-04
7.734823e+00	3.029595e-03
7.740294e+00	2.409212e-03
7.745765e+00	3.579427e-04
7.751236e+00	9.945493e-06
7.756707e+00	2.240190e-06
7.762178e+00	9.177012e-05
7.767649e+00	7.189191e-04
7.773120e+00	1.056034e-03
7.778591e+00	4.900035e-04
7.784061e+00	2.787952e-03
7.789532e+00	1.621215e-02
7.795003e+00	3.184390e-02
7.800473e+00	1.416119e-02
7.805944e+00	2.377827e-03
7.811414e+00	1.147536e-03
7.816884e+00	3.648872e-04
7.822355e+00	2.490034e-05
7.827825e+00	3.219200e-07
7.833295e+00	7.786699e-10
7.838765e+00	3.519400e-13
7.844235e+00	1.601757e-32
7.849705e+00	4.084326e-33
7.855175e+00	1.207111e-33
7.860645e+00	8.302179e-35
7.866115e+00	1.074778e-36
7.871584e+00	2.600103e-39
7.877054e+00	1.220134e-42
7.882523e+00	1.356237e-40
7.887993e+00	7.774951e-38
7.893462e+00	8.982478e-36
7.898932e+00	2.514413e-34
7.904401e+00	2.190875e-33
7.909870e+00	5.486721e-33
7.915339e+00	3.039242e-33
7.915837e+00	2.658514e-33