File: asc_to-csv/example/asc/210721_LFP_first.asc
*TYPE		=  Raw
*CLASS		=  ASCII CLASS
*SAMPLE		=  2210721_LFP_first
*COMMENT	=
*FNAME		=  210721_LFP_first_Theta_2-Theta.asc
*DATE		=  21-Jul-21 11:54

*GROUP_COUNT	=  1
*GONIO		=  MiniFlex 300/600 +, 150
*ATTACHMENT	=  ASC-6
*ASC		=  0, 0, 0.000000, 0.000000
*FILTER		=  K-beta(x1)
*C_MONOCHRO	=  None, 0.000000
*SLIT_NAME	=  0, IHS
*SLIT_NAME	=  1, DS +
*SLIT_NAME	=  2, SS
*SLIT_NAME	=  3, RS
*COUNTER	=  D/teX Ultra, 0
*POS_FORMAT	=  0
*SCAN_AXIS	=  2theta/theta
*MEAS_MODE	=  Continuous Scanning
*TARGET		=  29
*XRAY_CHAR	=  K-ALPHA
*WAVE_LENGTH1	=  1.54059
*WAVE_LENGTH2	=  1.54441
*THICKNESS	=  0, 0.000000
*MU		=  0, 0.000000
*SCAN_MODE	=  2theta/theta
*SPEED_DIM	=  sec./step
*XUNIT		=  deg.
*YUNIT		=  counts
*SCALE_MODE	=  1
*REP_COUNT	=  0
*SE_COUNT	=  0
*STD_MATERIAL	=  Unknown, Unknown, 0.000000, 0.000000, 0.000000, 0.000000, 0.000000, 0.000000
*LATT_CONS	=  0, Unknown, Unknown, 0.000000, 0.000000, 0.000000, 0.000000, 0.000000, 0.000000
*SEC_COUNT	=  1
*TSPEC_SIZE	=  0
*EXTRA_SIZE	=  0
*MEMO		=

*BEGIN
*GROUP		=  0
*START		=  5
*STOP		=  90
*STEP		=  0.02
*OFFSET		=  0.000000
*SPEED		=  0.12
*SLIT_SPEC	=  0, 10.0mm, 10, 0.000000
*SLIT_SPEC	=  1, 0.625deg, 0.625, 0.000000
*SLIT_SPEC	=  2, 13.0mm, 13, 0.000000
*SLIT_SPEC	=  3, 13.0mm, 13, 0.000000
*KV		=  20
*MA		=  2
*LOW		=  0.000000
*HIGH		=  0.000000
*CTEMPER	=  0, 0.000000
*CTEMPER	=  1, 0.000000
*CTEMPER	=  2, 0.000000
*PAREX		=  0, 0.000000
*PAREX		=  1, 0.000000
*PAREX		=  2, 0.000000
*PAREX		=  3, 0.000000
*PAREX		=  4, 0.000000
*PAREX		=  5, 0.000000
*PAREX		=  6, 0.000000
*PAREX		=  7, 0.000000
*PAREX		=  8, 0.000000
*PAREX		=  9, 0.000000
*PAREX		=  10, 0.000000
*PAREX		=  11, 0.000000
*PAREX		=  12, 0.000000
*PAREX		=  13, 0.000000
*PAREX		=  14, 0.000000
*PAREX		=  15, 0.000000
*FULL_SCALE	=  10910
*INDEX		=  0, 0, 0
*COUNT		=  4251
153, 141, 154, 155
143, 154, 160, 142
138, 139, 135, 131
135, 151, 150, 141
146, 156, 150, 137
145, 155, 153, 147
135, 156, 171, 143
133, 141, 150, 136
131, 147, 151, 149
150, 155, 144, 134
137, 141, 142, 140
141, 131, 131, 143
143, 139, 126, 126
138, 126, 135, 142
136, 128, 121, 142
142, 128, 139, 146
147, 154, 152, 130
128, 136, 136, 140
142, 142, 137, 144
150, 154, 147, 128
133, 147, 128, 114
117, 138, 154, 132
126, 135, 129, 131
137, 133, 124, 126
144, 149, 132, 135
141, 128, 123, 122
131, 137, 129, 135
140, 131, 135, 142
133, 136, 132, 131
135, 135, 138, 132
131, 131, 121, 133
127, 117, 128, 120
121, 134, 124, 129
141, 135, 126, 119
108, 113, 138, 146
132, 122, 126, 121
114, 125, 126, 118
114, 124, 132, 134
129, 124, 125, 129
131, 126, 116, 118
125, 130, 126, 135
130, 119, 125, 127
135, 139, 113, 111
118, 117, 117, 118
115, 127, 130, 121
127, 127, 118, 131
136, 127, 129, 138
125, 120, 117, 113
119, 122, 124, 131
143, 130, 128, 124
114, 120, 124, 128
128, 114, 116, 125
129, 122, 115, 112
110, 114, 114, 110
110, 113, 122, 107
112, 118, 107, 112
120, 125, 122, 117
120, 126, 125, 123
126, 127, 119, 125
122, 120, 126, 121
113, 101, 121, 131
125, 122, 119, 114
128, 131, 128, 120
116, 124, 133, 129
116, 109, 115, 130
131, 127, 129, 122
114, 121, 126, 128
127, 129, 118, 120
132, 139, 121, 110
121, 126, 126, 127
121, 117, 108, 107
116, 118, 116, 117
122, 123, 131, 134
136, 139, 144, 135
125, 127, 136, 122
126, 125, 130, 138
130, 137, 139, 136
129, 131, 131, 127
136, 124, 122, 131
144, 140, 132, 133
142, 131, 116, 120
133, 129, 135, 145
139, 129, 121, 115
127, 127, 144, 146
139, 125, 112, 111
130, 134, 140, 128
118, 123, 121, 125
131, 136, 150, 132
137, 144, 130, 128
132, 136, 130, 136
140, 135, 123, 126
132, 139, 145, 145
146, 138, 132, 132
133, 132, 134, 141
121, 123, 125, 135
140, 147, 147, 140
141, 133, 132, 138
127, 129, 130, 141
142, 143, 135, 125
131, 144, 149, 149
137, 141, 145, 138
129, 141, 141, 142
125, 124, 149, 151
137, 134, 127, 132
138, 148, 136, 125
125, 134, 135, 121
118, 130, 130, 125
126, 131, 146, 132
121, 123, 127, 130
141, 125, 124, 143
137, 131, 138, 143
140, 131, 138, 128
134, 134, 129, 135
131, 125, 137, 140
140, 139, 135, 130
135, 126, 126, 142
131, 136, 133, 122
125, 126, 135, 137
122, 127, 134, 137
147, 145, 133, 125
129, 137, 135, 140
149, 149, 139, 134
126, 122, 131, 130
127, 127, 135, 131
124, 114, 126, 124
131, 140, 146, 145
131, 127, 136, 128
126, 121, 119, 128
137, 137, 128, 138
139, 126, 133, 135
124, 130, 139, 135
136, 144, 149, 138
141, 142, 144, 133
129, 144, 142, 131
131, 132, 134, 139
140, 138, 143, 146
138, 136, 147, 142
128, 126, 131, 132
127, 131, 128, 119
119, 123, 131, 124
120, 114, 121, 122
122, 119, 122, 140
137, 128, 128, 131
140, 144, 137, 144
133, 126, 129, 120
128, 133, 134, 134
156, 167, 144, 139
134, 147, 157, 153
136, 138, 139, 156
184, 184, 184, 179
189, 218, 270, 297
309, 367, 406, 484
527, 521, 447, 383
322, 255, 216, 187
168, 168, 168, 164
145, 144, 154, 130
132, 138, 135, 141
135, 132, 134, 131
140, 136, 134, 123
120, 125, 131, 137
141, 131, 123, 125
121, 117, 132, 139
133, 124, 126, 138
136, 134, 129, 130
125, 124, 135, 129
134, 136, 119, 126
127, 122, 117, 122
138, 123, 125, 124
129, 119, 130, 130
128, 126, 145, 138
122, 123, 125, 125
122, 126, 130, 132
114, 122, 136, 129
130, 132, 121, 127
117, 126, 132, 120
117, 125, 121, 126
121, 121, 118, 126
127, 137, 133, 132
127, 134, 124, 116
123, 133, 132, 138
128, 125, 117, 114
124, 135, 138, 140
154, 150, 140, 136
131, 138, 132, 131
134, 123, 122, 118
131, 135, 119, 117
120, 126, 134, 134
133, 124, 115, 110
119, 135, 126, 134
136, 128, 125, 129
138, 132, 130, 124
144, 139, 149, 161
146, 139, 149, 157
155, 154, 148, 165
170, 181, 210, 223
240, 271, 318, 398
456, 546, 676, 799
948, 1053, 1056, 938
781, 597, 464, 380
303, 243, 210, 185
176, 180, 172, 154
148, 155, 152, 151
145, 136, 137, 149
136, 121, 124, 132
148, 140, 123, 127
136, 130, 125, 138
154, 152, 156, 159
147, 138, 127, 131
142, 136, 124, 126
126, 130, 131, 132
124, 127, 116, 113
122, 116, 119, 118
123, 142, 153, 142
137, 135, 133, 122
124, 134, 130, 128
124, 127, 130, 125
133, 129, 128, 133
133, 144, 140, 140
141, 147, 160, 175
174, 180, 199, 218
245, 261, 301, 359
393, 426, 406, 342
303, 281, 243, 207
183, 183, 171, 173
167, 155, 159, 166
153, 140, 130, 134
140, 130, 125, 121
119, 132, 129, 122
120, 133, 143, 136
126, 122, 126, 125
126, 128, 127, 129
138, 136, 129, 114
109, 123, 116, 112
123, 130, 125, 130
139, 134, 127, 120
121, 126, 127, 127
125, 145, 159, 160
158, 180, 208, 202
218, 226, 227, 206
191, 187, 168, 150
136, 145, 157, 146
133, 127, 128, 126
135, 131, 137, 143
137, 124, 123, 123
123, 135, 139, 126
117, 118, 133, 140
142, 131, 126, 121
129, 135, 130, 129
122, 121, 129, 130
137, 146, 139, 131
132, 148, 159, 154
148, 153, 161, 159
163, 166, 157, 164
178, 180, 187, 193
195, 210, 218, 239
275, 313, 373, 438
516, 638, 763, 893
1018, 1044, 1021, 983
900, 788, 644, 532
442, 386, 328, 280
254, 241, 220, 205
187, 180, 172, 164
165, 161, 158, 144
139, 139, 143, 140
134, 132, 133, 130
133, 132, 132, 127
120, 113, 114, 122
125, 124, 120, 127
137, 124, 120, 121
131, 132, 120, 115
128, 133, 127, 134
135, 138, 135, 126
115, 115, 123, 129
133, 133, 132, 122
121, 125, 119, 118
118, 115, 130, 134
128, 120, 110, 113
129, 120, 107, 118
126, 119, 119, 112
113, 122, 125, 111
111, 120, 120, 114
116, 113, 117, 112
110, 121, 112, 105
108, 105, 108, 116
114, 114, 116, 124
111, 115, 126, 124
134, 135, 119, 119
123, 105, 102, 116
124, 123, 128, 119
110, 120, 115, 111
118, 114, 99, 99
117, 121, 119, 116
113, 116, 117, 116
109, 113, 125, 122
118, 110, 104, 114
120, 112, 105, 115
114, 110, 124, 126
119, 123, 120, 120
127, 120, 122, 122
123, 121, 122, 129
131, 132, 136, 139
141, 134, 130, 127
133, 145, 146, 144
131, 126, 128, 128
144, 159, 162, 154
155, 172, 178, 192
205, 219, 240, 249
290, 334, 362, 452
570, 651, 755, 899
1003, 987, 864, 765
688, 588, 493, 412
343, 307, 270, 243
232, 207, 197, 190
188, 177, 167, 166
159, 150, 155, 159
147, 134, 130, 126
120, 125, 126, 124
124, 125, 131, 133
126, 126, 127, 115
106, 113, 122, 125
120, 109, 105, 106
113, 115, 114, 115
113, 117, 114, 114
128, 135, 124, 116
117, 117, 118, 109
104, 108, 104, 107
113, 109, 114, 106
101, 102, 102, 116
122, 109, 103, 111
111, 114, 122, 119
118, 126, 128, 119
118, 128, 117, 108
116, 118, 122, 113
108, 112, 115, 114
107, 116, 117, 117
125, 119, 114, 122
128, 119, 115, 118
127, 143, 145, 142
151, 163, 185, 217
242, 276, 319, 386
443, 492, 507, 456
418, 384, 318, 268
232, 193, 176, 166
159, 160, 154, 148
136, 127, 130, 125
125, 136, 136, 134
144, 137, 121, 116
125, 126, 118, 121
118, 113, 117, 118
110, 114, 121, 123
124, 118, 109, 110
109, 103, 98, 100
118, 123, 108, 97
104, 114, 111, 93
92, 101, 89, 98
110, 102, 106, 114
107, 99, 105, 105
104, 110, 114, 111
96, 93, 106, 104
101, 108, 107, 103
114, 113, 100, 108
116, 119, 111, 112
115, 107, 102, 103
106, 111, 118, 118
118, 107, 112, 121
115, 117, 114, 117
112, 109, 115, 110
108, 115, 119, 120
130, 135, 134, 132
128, 136, 145, 135
134, 141, 129, 130
137, 135, 131, 119
121, 127, 119, 119
115, 109, 108, 116
123, 120, 128, 137
137, 126, 120, 127
134, 140, 131, 141
150, 147, 145, 143
153, 170, 182, 192
202, 206, 217, 227
252, 299, 342, 369
421, 483, 608, 756
893, 1030, 1091, 1091
1028, 932, 888, 833
679, 542, 477, 428
366, 312, 277, 240
208, 197, 205, 206
193, 180, 177, 175
160, 154, 151, 152
156, 154, 145, 144
161, 159, 160, 156
155, 158, 171, 186
187, 188, 193, 215
235, 274, 314, 346
374, 385, 380, 379
371, 341, 317, 312
285, 233, 210, 196
183, 170, 167, 149
130, 141, 142, 132
126, 128, 138, 124
122, 122, 111, 120
121, 112, 112, 121
121, 113, 117, 131
136, 121, 108, 118
119, 111, 120, 119
105, 108, 112, 120
116, 110, 110, 108
115, 122, 117, 127
145, 119, 116, 134
141, 151, 158, 165
187, 212, 239, 259
287, 324, 309, 288
286, 260, 247, 225
195, 178, 174, 163
147, 127, 122, 126
130, 125, 116, 110
110, 117, 116, 111
127, 126, 120, 125
113, 101, 100, 101
107, 109, 105, 100
97, 113, 108, 104
108, 99, 98, 105
113, 104, 101, 114
108, 101, 99, 97
97, 107, 110, 112
107, 105, 120, 124
112, 102, 111, 127
132, 141, 147, 147
151, 178, 188, 205
234, 255, 261, 248
232, 231, 225, 236
231, 195, 184, 187
196, 225, 251, 271
273, 253, 271, 288
279, 274, 292, 324
332, 324, 311, 301
280, 256, 252, 232
206, 190, 169, 153
143, 141, 135, 119
114, 117, 114, 108
103, 111, 116, 113
101, 103, 103, 95
95, 104, 102, 98
95, 94, 91, 82
83, 99, 105, 107
109, 105, 105, 103
90, 87, 86, 94
95, 97, 94, 93
109, 112, 103, 104
97, 104, 104, 93
101, 102, 107, 93
93, 97, 87, 86
92, 85, 87, 103
101, 112, 115, 101
91, 89, 96, 113
114, 98, 96, 89
81, 94, 106, 108
102, 92, 97, 100
90, 96, 102, 91
90, 95, 98, 101
98, 100, 93, 90
102, 108, 122, 122
120, 118, 125, 125
123, 136, 133, 138
149, 149, 161, 199
230, 240, 255, 262
266, 266, 246, 227
235, 214, 197, 194
166, 142, 133, 136
119, 118, 112, 98
101, 116, 121, 112
106, 103, 99, 99
99, 102, 92, 86
96, 105, 114, 102
90, 96, 108, 107
115, 106, 97, 93
92, 98, 89, 81
88, 98, 98, 93
91, 96, 97, 96
95, 93, 90, 93
95, 95, 97, 95
99, 92, 91, 94
93, 94, 97, 94
88, 91, 91, 89
91, 94, 93, 90
81, 87, 98, 101
106, 99, 98, 105
100, 89, 94, 104
100, 98, 100, 111
107, 98, 96, 94
101, 103, 98, 104
118, 114, 110, 125
140, 147, 147, 147
149, 146, 139, 139
130, 123, 119, 112
111, 104, 100, 96
105, 108, 109, 115
117, 113, 107, 109
104, 111, 123, 116
112, 118, 114, 114
128, 136, 136, 131
133, 140, 124, 126
139, 130, 115, 103
110, 100, 88, 101
97, 89, 95, 104
101, 88, 89, 90
87, 90, 106, 103
98, 87, 82, 107
112, 96, 81, 80
94, 102, 95, 88
92, 95, 90, 97
100, 91, 92, 108
108, 94, 95, 100
100, 93, 90, 100
99, 98, 99, 101
102, 111, 122, 124
121, 126, 130, 129
119, 118, 120, 115
112, 104, 106, 114
108, 102, 102, 101
99, 91, 96, 98
95, 93, 91, 90
96, 100, 92, 87
94, 95, 97, 99
102, 103, 103, 109
114, 116, 109, 97
95, 111, 110, 106
112, 97, 79, 78
84, 92, 96, 95
96, 101, 98, 90
97, 106, 99, 96
94, 84, 84, 92
101, 99, 84, 85
88, 91, 98, 99
97, 94, 98, 100
93, 94, 91, 77
86, 98, 92, 91
94, 98, 108, 108
104, 105, 105, 101
103, 104, 95, 105
114, 116, 124, 121
114, 115, 127, 126
121, 110, 100, 117
117, 113, 109, 100
97, 92, 94, 103
102, 109, 115, 104
109, 109, 99, 95
98, 102, 105, 101
100, 102, 99, 108
112, 110, 111, 114
113, 113, 111, 107
116, 121, 133, 153
158, 159, 175, 188
196, 195, 190, 194
185, 174, 188, 180
156, 148, 146, 145
140, 130, 118, 123
125, 124, 125, 119
114, 115, 109, 108
100, 95, 111, 116
114, 117, 110, 103
109, 113, 111, 117
136, 139, 130, 137
147, 147, 139, 148
154, 170, 188, 179
162, 169, 181, 198
213, 221, 208, 194
206, 200, 194, 204
199, 177, 167, 180
185, 186, 178, 168
158, 149, 158, 169
153, 152, 136, 132
136, 135, 116, 109
111, 109, 106, 109
113, 100, 99, 106
107, 99, 94, 103
106, 111, 109, 94
95, 107, 110, 96
92, 91, 91, 95
93, 96, 90, 90
98, 97, 95, 96
99, 90, 96, 99
102, 103, 98, 106
101, 93, 99, 99
96, 91, 92, 92
96, 93, 92, 94
100, 106, 111, 108
101, 110, 110, 104
104, 118, 119, 128
125, 123, 134, 128
124, 129, 139, 145
151, 160, 170, 168
178, 190, 207, 218
244, 266, 290, 306
337, 337, 339, 346
351, 356, 356, 341
333, 346, 330, 285
264, 259, 249, 230
198, 186, 194, 196
189, 170, 145, 131
131, 142, 146, 135
131, 130, 116, 115
122, 114, 110, 109
109, 102, 107, 107
107, 110, 114, 109
97, 102, 106, 95
107, 97, 99, 99
102, 96, 100, 113
110, 96, 108, 101
97, 87, 94, 101
97, 90, 89, 84
90, 102, 112, 104
98, 106, 97, 101
86, 79, 87, 90
94, 90, 88, 94
103, 95, 84, 103
103, 104, 102, 102
92, 96, 104, 102
101, 86, 87, 93
103, 100, 97, 106
117, 111, 108, 107
107, 109, 102, 96
105, 108, 117, 125
130, 123, 135, 172
177, 180, 191, 217
237, 228, 217, 201
199, 200, 199, 198
191, 186, 171, 165
160, 144, 157, 174
176, 171, 174, 199
209, 205, 226, 231
233, 239, 230, 216
218, 212, 187, 192
196, 191, 181, 158
153, 140, 129, 114
124, 131, 119, 96
106, 109, 101, 112
121, 132, 122, 123
113, 120, 115, 108
110, 103, 113, 127
118, 126, 117, 122
118, 125, 122, 118
118, 126, 137, 145
145, 150, 154, 179
175, 187, 204, 213
224, 250, 249, 251
226, 226, 218, 220
203, 193, 199, 185
172, 161, 156, 160
145, 136, 127, 130
130, 119, 119, 113
110, 119, 124, 109
102, 102, 105, 94
91, 83, 93, 102
112, 107, 92, 87
82, 86, 91, 86
109, 113, 102, 92
98, 115, 112, 102
97, 110, 110, 117
107, 97, 99, 107
109, 108, 109, 106
106, 111, 111, 105
105, 90, 98, 102
112, 108, 118, 125
125, 134, 133, 134
138, 155, 177, 160
181, 176, 145, 155
155, 158, 157, 142
140, 141, 126, 135
132, 116, 127, 116
113, 130, 113, 102
112, 109, 97, 90
93, 91, 97, 95
100, 100, 100, 105
89, 85, 91, 77
78, 84, 87, 94
91, 95, 100, 92
87, 80, 85, 93
95, 90, 92, 87
96, 93, 99, 104
96, 94, 95, 81
91, 89, 96, 99
97, 96, 101, 97
96, 92, 94, 96
102, 97, 107, 98
102, 103, 92, 96
86, 97, 90, 79
95, 96, 89, 81
88, 86, 91, 89
89, 89, 91, 82
78, 92, 91, 90
95, 106, 80, 82
82, 74, 86, 96
97, 88, 95, 85
87, 82, 86, 91
94, 84, 92, 99
95, 87, 90, 106
94, 88, 91, 84
97, 97, 87, 86
106, 88, 97, 102
108, 94, 98, 89
101, 110, 111, 98
91, 107, 117, 99
96, 115, 110, 102
111, 121, 127, 119
119, 120, 121, 130
155, 140, 160, 149
161, 165, 171, 178
196, 225, 246, 238
270, 275, 254, 272
259, 228, 231, 266
269, 266, 270, 258
230, 244, 231, 235
242, 247, 270, 261
240, 245, 217, 202
206, 196, 203, 174
165, 153, 170, 153
146, 155, 153, 130
122, 114, 118, 123
101, 102, 91, 106
106, 110, 96, 87
103, 108, 102, 86
94, 91, 105, 103
92, 87, 90, 105
92, 93, 88, 85
90, 86, 97, 103
89, 106, 102, 94
89, 86, 103, 95
96, 95, 95, 89
85, 81, 84, 86
88, 78, 88, 102
99, 91, 97, 102
88, 84, 101, 88
100, 107, 107, 88
100, 83, 79, 89
81, 75, 89, 91
103, 105, 98, 117
103, 115, 108, 119
139, 109, 95, 99
98, 69, 90, 119
114, 95, 117, 113
115, 114, 111, 97
96, 101, 94, 95
92, 90, 101, 97
99, 103, 97, 99
95, 109, 122, 100
104, 95, 88, 89
94, 99, 98, 93
98, 98, 100, 89
90, 86, 82, 85
95, 85, 76, 104
104, 90, 77, 94
79, 86, 85, 92
92, 97, 89, 97
91, 88, 94, 102
89, 94, 86, 89
100, 105, 101, 99
99, 90, 88, 98
105, 103, 107, 91
97, 103, 102, 97
90, 99, 100, 100
110, 97, 104, 108
92, 95, 107, 105
99, 90, 102, 100
113, 109, 92, 104
86, 105, 102, 107
117, 115, 127, 137
144, 144, 124, 125
129, 131, 134, 136
123, 109, 109, 107
100, 94, 100, 105
108, 105, 105, 100
88, 96, 88, 88
83, 92, 93, 89
97, 88, 98, 110
100, 86, 97, 101
102, 92, 92, 94
93, 104, 112, 112
99, 101, 97, 113
103, 109, 128, 118
119, 109, 127, 122
108, 112, 128, 138
117, 128, 110, 102
123, 126, 121, 110
122, 114, 123, 118
109, 104, 104, 96
96, 94, 82, 99
110, 102, 103, 103
99, 88, 97, 99
97, 101, 103, 107
121, 108, 102, 97
96, 95, 99, 110
96, 97, 108, 110
101, 111, 95, 89
99, 103, 89, 95
91, 93, 80, 89
89, 97, 91, 84
90, 84, 85, 100
102, 106, 98, 100
95, 96, 81, 88
95, 106, 102, 91
89, 104, 100, 83
95, 90, 93, 91
78, 88, 93, 95
119, 103, 98, 97
89, 107, 113, 115
111, 104, 104, 106
105, 110, 110, 110
114, 108, 93, 99
110, 102, 101, 97
92, 104, 102, 110
104, 114, 101, 94
99, 104, 104, 116
107, 128, 135, 133
127, 131, 145, 149
152, 142, 152, 158
154, 144, 138, 144
146, 151, 144, 136
156, 132, 128, 119
111, 113, 126, 113
105, 105, 119, 127
123, 110, 90, 95
93, 85, 89, 93
94, 95, 87, 98
94, 89, 92, 87
82, 95, 92, 87
94, 89, 81, 99
103, 113, 111, 109
109, 102, 105, 106
100, 99, 110, 110
109, 113, 110, 107
100, 101, 95, 102
104, 109, 104, 92
97, 98, 106, 97
94, 100, 111, 110
109, 110, 103, 113
122, 112, 98, 117
111, 100, 122, 116
112, 111, 113, 106
115, 115, 123, 127
131, 137, 141, 147
167, 156, 156, 164
153, 137, 137, 139
144, 142, 148, 135
125, 126, 128, 129
120, 117, 119, 115
117, 109, 93, 96
97, 91, 100, 102
88, 88, 94, 98
96, 91, 82, 81
97, 104, 101, 101
88, 88, 91, 91
93, 94, 90, 87
90, 94, 94, 96
91, 85, 86, 93
96, 97, 94, 93
104, 112, 106, 107
107, 101, 97, 97
98, 100, 98, 93
93, 92, 102, 109
106, 108, 100, 95
98, 97, 97, 98
91, 90, 99, 105
96, 92, 97, 98
102, 102, 100, 98
99, 102, 108, 114
113, 111, 121, 120
116, 123, 124, 121
119, 116, 124, 126
120, 122, 111, 98
95, 100, 104, 99
101, 102, 93, 88
100, 110, 99, 87
85, 93, 99, 98
90, 91, 101, 100
95, 102, 104, 93
88, 100, 105, 104
100, 95, 97, 93
97, 97, 93, 93
92, 95, 99, 99
102, 98, 93, 88
90, 95, 97, 94
87, 80, 85, 96
101, 104, 99, 100
99, 94, 93, 102
106, 100, 93, 93
92, 88, 86, 95
101, 96, 90, 95
99, 86, 77, 86
101, 102, 99, 93
87, 80, 84, 96
103, 105, 94, 78
81, 94, 99, 99
97, 87, 93, 106
96, 83, 93, 105
93, 85, 88, 87
83, 82, 83, 84
87, 87, 92, 98
83, 86, 83, 74
84, 95, 97, 98
86, 78, 78, 86
95, 97, 95, 90
90, 95, 94, 88
89, 99, 102, 101
84, 77, 86, 90
98, 99, 94, 91
96, 104, 99, 105
114, 111, 113, 107
100, 104, 104, 105
110, 111, 117, 119
103, 115, 128, 121
112, 109, 108, 107
120, 117, 112, 115
107, 92, 92, 100
106, 105, 100, 99
97, 87, 85, 87
87, 93, 98, 99
95, 89, 85, 94
90, 73, 70, 79
78, 81, 85, 88
89, 98, 95, 86
88, 93, 94, 93
86, 77, 87, 96
89, 84, 89, 86
92, 94, 88, 91
94, 87, 82, 89
87, 83, 86, 94
91, 84, 83, 83
83, 85, 88, 84
80, 83, 95, 87
77, 76, 83, 86
82, 87, 84, 79
80, 80, 76, 75
83, 88, 81, 75
81, 81, 88, 95
92, 91, 85, 78
77, 74, 77, 81
88, 82, 83, 93
87, 85, 86, 90
93, 89, 83, 81
89, 96, 91, 92
94, 99, 98, 90
92, 97, 91, 80
77, 77, 77, 80
87, 88, 77, 74
80, 85, 90, 94
90, 82, 84, 87
86, 88, 80, 82
86, 85, 91, 92
91, 89, 87, 86
85, 87, 83, 80
82, 81, 83, 85
83, 83, 89, 92
83, 88, 104, 99
88, 90, 88, 83
86, 87, 83, 82
88, 89, 87, 87
81, 72, 76, 83
85, 88, 98, 100
92, 84, 87, 93
86, 85, 97, 107
99, 86, 87, 90
93, 93, 92, 96
92, 90, 93, 101
100, 98, 103, 99
93, 93, 92, 95
102, 98, 93, 91
84, 92, 108, 103
89, 87, 87, 92
107, 103, 94, 93
97, 96, 90, 94
91, 96, 93, 82
90, 94, 91, 89
89, 99, 96, 103
111, 98, 89, 90
98, 102, 95, 86
86, 83, 89, 94
88, 92, 93, 88
92, 94, 92, 95
102, 105, 110, 107
96, 102, 107, 100
106, 101, 102, 115
111, 104, 106, 101
95, 96, 100, 94
84, 94, 111, 109
104, 105, 108, 118
116, 105, 101, 111
120, 110, 107, 109
106, 115, 118, 120
119, 124, 130, 121
118, 111, 104, 102
109, 104, 106, 117
106, 101, 103, 101
106, 110, 104, 97
97, 91, 86, 95
95, 82, 80, 93
90, 77, 74, 83
96, 88, 85, 105
108, 105, 93, 80
94, 103, 110, 108
100, 104, 101, 105
105, 98, 99, 103
101, 98, 100, 97
89, 95, 94, 97
105, 107, 107, 109
106, 101, 95, 100
99, 89, 94, 102
99, 89, 90, 100
95, 90, 92, 95
95, 92, 98, 94
84, 85, 80, 82
98, 101, 87, 84
85, 88, 89, 87
86, 91, 93, 81
84, 87, 82, 92
92, 82, 87, 91
85, 84, 72, 75
89, 91, 85, 77
79, 81, 82, 87
88, 86, 86, 90
99, 94, 88, 85
72, 78, 90, 88
87, 88, 84, 86
87, 87, 87, 83
95, 104, 99, 96
87, 95, 96, 89
89, 80, 77, 84
95, 101, 100, 103
103, 96, 103, 99
95, 95, 96, 104
118, 114, 101, 103
103, 91, 102, 112
113, 113, 113, 109
106, 113, 118, 117
110, 104, 110, 115
108, 110, 106, 105
101, 102, 109, 115
107, 107, 112, 101
101, 92, 87, 85
89, 100, 93, 99
96, 87, 100, 100
87, 91, 92, 91
90, 96, 100, 90
95, 100, 107, 122
113, 112, 104, 99
110, 110, 109, 111
108, 101, 106, 98
93, 94, 95, 88
93, 104, 102, 105
100, 94, 94, 93
95, 92, 89, 83
79, 88, 91, 95
98, 95, 91, 87
85, 84, 89, 89
85, 89, 91, 89
84, 86, 85, 86
86, 84, 87, 99
99, 84, 76, 81
90, 96, 96, 92
94, 91, 85, 89
93, 89, 89, 98
109, 99, 87, 82
74, 74, 74
*END

*EOF