File: diffraction_plot/example/data/A1_SDD1205_Li_VO2-B_p2_001.chi
C:\Users\aodrejer\Desktop\Run2\Collected_files_Run2\Pos_A1\A1_SDD1205_Li_VO2-B_p
2-Theta Angle (Degrees)
Intensity
       2000
 0.0106513  0.0000000E+00
 0.0248531  0.0000000E+00
 0.0390548  0.0000000E+00
 0.0532566  0.0000000E+00
 0.0674583  0.0000000E+00
 0.0816601  0.0000000E+00
 0.0958618  0.0000000E+00
 0.110064  0.0000000E+00
 0.124265  0.0000000E+00
 0.138467  0.0000000E+00
 0.152669  0.0000000E+00
 0.166871  0.0000000E+00
 0.181072  0.0000000E+00
 0.195274  0.0000000E+00
 0.209476  0.0000000E+00
 0.223678  0.0000000E+00
 0.237879  0.0000000E+00
 0.252081  0.0000000E+00
 0.266283  0.0000000E+00
 0.280485  0.0000000E+00
 0.294686  0.0000000E+00
 0.308888  0.0000000E+00
 0.32309  0.0000000E+00
 0.337292  0.0000000E+00
 0.351493  0.0000000E+00
 0.365695  0.0000000E+00
 0.379897  0.0000000E+00
 0.394099  0.0000000E+00
 0.4083  0.0000000E+00
 0.422502  0.0000000E+00
 0.436704  0.0000000E+00
 0.450906  0.0000000E+00
 0.465107  0.0000000E+00
 0.479309  0.0000000E+00
 0.493511  0.0000000E+00
 0.507713  0.0000000E+00
 0.521914  0.0000000E+00
 0.536116  0.0000000E+00
 0.550318  0.0000000E+00
 0.56452  0.0000000E+00
 0.578721  0.0000000E+00
 0.592923  0.0000000E+00
 0.607125  0.0000000E+00
 0.621327  0.0000000E+00
 0.635528  0.0000000E+00
 0.64973  0.0000000E+00
 0.663932  0.0000000E+00
 0.678134  0.0000000E+00
 0.692335  0.0000000E+00
 0.706537  0.0000000E+00
 0.720739  0.0000000E+00
 0.734941  0.0000000E+00
 0.749142  0.0000000E+00
 0.763344  0.0000000E+00
 0.777546  0.0000000E+00
 0.791748  0.0000000E+00
 0.805949  0.0000000E+00
 0.820151  0.0000000E+00
 0.834353  0.0000000E+00
 0.848555  0.0000000E+00
 0.862756  0.0000000E+00
 0.876958  0.0000000E+00
 0.89116  0.0000000E+00
 0.905362  0.0000000E+00
 0.919563  0.0000000E+00
 0.933765  0.0000000E+00
 0.947967  0.0000000E+00
 0.962169  0.0000000E+00
 0.97637  0.0000000E+00
 0.990572  0.0000000E+00
 1.00477  0.0000000E+00
 1.01898  0.0000000E+00
 1.03318  0.0000000E+00
 1.04738  0.0000000E+00
 1.06158  0.0000000E+00
 1.07578  0.0000000E+00
 1.08998  0.0000000E+00
 1.10419  0.0000000E+00
 1.11839  0.0000000E+00
 1.13259  0.0000000E+00
 1.14679  0.0000000E+00
 1.16099  0.0000000E+00
 1.17519  0.0000000E+00
 1.1894  0.0000000E+00
 1.2036  0.0000000E+00
 1.2178  0.0000000E+00
 1.232  0.0000000E+00
 1.2462  0.0000000E+00
 1.26041  0.0000000E+00
 1.27461  0.0000000E+00
 1.28881  0.0000000E+00
 1.30301  0.0000000E+00
 1.31721  0.0000000E+00
 1.33141  0.0000000E+00
 1.34562  0.0000000E+00
 1.35982  0.0000000E+00
 1.37402  0.0000000E+00
 1.38822  0.0000000E+00
 1.40242  0.0000000E+00
 1.41662  0.0000000E+00
 1.43083  0.0000000E+00
 1.44503  0.0000000E+00
 1.45923  0.0000000E+00
 1.47343  0.0000000E+00
 1.48763  0.0000000E+00
 1.50184  0.0000000E+00
 1.51604  0.0000000E+00
 1.53024  0.0000000E+00
 1.54444  12746.6
 1.55864  12584
 1.57284  12513.2
 1.58705  12439.5
 1.60125  12347.9
 1.61545  12304.4
 1.62965  12259.7
 1.64385  12219.9
 1.65805  12185.6
 1.67226  12145.2
 1.68646  12126.4
 1.70066  12057.6
 1.71486  12037.9
 1.72906  12036.3
 1.74326  12006.2
 1.75747  11977.3
 1.77167  11966.2
 1.78587  11947.6
 1.80007  11930.8
 1.81427  11949.8
 1.82848  11963.9
 1.84268  11988.2
 1.85688  12013.5
 1.87108  12069.8
 1.88528  12195.7
 1.89948  12452.4
 1.91369  12794.5
 1.92789  13045
 1.94209  13052.1
 1.95629  12864.7
 1.97049  12705.3
 1.98469  12655.4
 1.9989  12715.1
 2.0131  13001.3
 2.0273  13944.2
 2.0415  15692.2
 2.0557  16827.3
 2.0699  16196.3
 2.08411  14456.9
 2.09831  13233.4
 2.11251  12796.2
 2.12671  12686.3
 2.14091  12673.7
 2.15512  12692.8
 2.16932  12726
 2.18352  12767.2
 2.19772  12816.6
 2.21192  12860.5
 2.22612  12911.1
 2.24033  12968.9
 2.25453  13022.5
 2.26873  13079.6
 2.28293  13131
 2.29713  13200.5
 2.31133  13288.9
 2.32554  13395.5
 2.33974  13578.6
 2.35394  13892.6
 2.36814  14196
 2.38234  14266.7
 2.39655  14110.2
 2.41075  13932.6
 2.42495  13882.9
 2.43915  13907.1
 2.45335  13967
 2.46755  14011.5
 2.48176  14050.9
 2.49596  14082.1
 2.51016  14129.6
 2.52436  14171.2
 2.53856  14231.7
 2.55276  14300.3
 2.56697  14364.7
 2.58117  14439.4
 2.59537  14523.4
 2.60957  14616.3
 2.62377  14711.6
 2.63797  14822.4
 2.65218  14939.4
 2.66638  15051.8
 2.68058  15155.2
 2.69478  15236.7
 2.70898  15322.2
 2.72319  15411.3
 2.73739  15515.5
 2.75159  15610
 2.76579  15712.5
 2.77999  15823.4
 2.79419  15908.3
 2.8084  15983.3
 2.8226  16068.8
 2.8368  16160.3
 2.851  16243
 2.8652  16341.1
 2.8794  16439.9
 2.89361  16552
 2.90781  16651.7
 2.92201  16768.4
 2.93621  16875.6
 2.95041  16981.2
 2.96462  17099.1
 2.97882  17193.7
 2.99302  17300.5
 3.00722  17414.1
 3.02142  17505.6
 3.03562  17613.5
 3.04983  17716.3
 3.06403  17799.8
 3.07823  17887.9
 3.09243  17988.4
 3.10663  18089.8
 3.12083  18170.8
 3.13504  18256.7
 3.14924  18349.2
 3.16344  18439.9
 3.17764  18535.8
 3.19184  18642.8
 3.20605  18730.3
 3.22025  18764.9
 3.23445  18786
 3.24865  18818
 3.26285  18864.5
 3.27705  18936.6
 3.29126  19031.5
 3.30546  19222.4
 3.31966  19672.9
 3.33386  21157.2
 3.34806  26034.5
 3.36226  35360.9
 3.37647  42081.7
 3.39067  39630.1
 3.40487  30662.6
 3.41907  23750.5
 3.43327  20983.8
 3.44747  19904
 3.46168  19289.9
 3.47588  18810.4
 3.49008  18383
 3.50428  18032.3
 3.51848  17762.8
 3.53269  17445.3
 3.54689  16960.1
 3.56109  16351
 3.57529  15784.1
 3.58949  15313.1
 3.60369  14894.7
 3.6179  14497.2
 3.6321  14116.4
 3.6463  13740.4
 3.6605  13384.7
 3.6747  13046.9
 3.6889  12724.6
 3.70311  12438.2
 3.71731  12200.9
 3.73151  11994.2
 3.74571  11761.5
 3.75991  11489.1
 3.77412  11252.3
 3.78832  11140.1
 3.80252  11057.1
 3.81672  10931.8
 3.83092  10794.7
 3.84512  10732.4
 3.85933  10659.7
 3.87353  10414.8
 3.88773  9989.82
 3.90193  9570.06
 3.91613  9269.63
 3.93033  9120.75
 3.94454  9131.27
 3.95874  9456.22
 3.97294  10548.8
 3.98714  12421.4
 4.00134  13660.9
 4.01554  13203.8
 4.02975  11658.5
 4.04395  10291.3
 4.05815  9347.27
 4.07235  8732.33
 4.08655  8582.71
 4.10076  8818.02
 4.11496  8969.26
 4.12916  8691.68
 4.14336  8131.83
 4.15756  7684.43
 4.17176  7447.73
 4.18597  7312.47
 4.20017  7214.55
 4.21437  7136.02
 4.22857  7074.99
 4.24277  7008.53
 4.25697  6951.38
 4.27118  6905.88
 4.28538  6858.64
 4.29958  6824.12
 4.31378  6791.51
 4.32798  6761.72
 4.34218  6746.54
 4.35639  6743.31
 4.37059  6767.53
 4.38479  6841.19
 4.39899  7001.77
 4.41319  7330.56
 4.4274  8049.22
 4.4416  9332.7
 4.4558  10797.6
 4.47  11776.2
 4.4842  11598.6
 4.4984  10298.6
 4.51261  8610.76
 4.52681  7385.02
 4.54101  6812.52
 4.55521  6562.49
 4.56941  6443.16
 4.58361  6369.05
 4.59782  6310.23
 4.61202  6257.27
 4.62622  6218.3
 4.64042  6174.45
 4.65462  6141.01
 4.66883  6114.48
 4.68303  6094.14
 4.69723  6083.78
 4.71143  6098.61
 4.72563  6151.92
 4.73983  6201.56
 4.75404  6184.33
 4.76824  6114.26
 4.78244  6033.14
 4.79664  5947.61
 4.81084  5835.23
 4.82504  5766.02
 4.83925  5741.44
 4.85345  5726.65
 4.86765  5721.53
 4.88185  5725.44
 4.89605  5722.45
 4.91026  5685.77
 4.92446  5637.09
 4.93866  5592.17
 4.95286  5561.25
 4.96706  5555.18
 4.98126  5583.41
 4.99547  5665.94
 5.00967  5827.77
 5.02387  6000.28
 5.03807  6034.4
 5.05227  5889.85
 5.06647  5685.58
 5.08068  5546.57
 5.09488  5475.92
 5.10908  5444.37
 5.12328  5432.13
 5.13748  5427.39
 5.15168  5432.32
 5.16589  5458.64
 5.18009  5511.58
 5.19429  5573.99
 5.20849  5610.51
 5.22269  5604.94
 5.2369  5596.31
 5.2511  5650.36
 5.2653  5735.64
 5.2795  5779.5
 5.2937  5733.97
 5.3079  5681.81
 5.32211  5689.96
 5.33631  5760.77
 5.35051  5850.78
 5.36471  5899.46
 5.37891  5902.41
 5.39311  5893.11
 5.40732  5927.95
 5.42152  5993.52
 5.43572  6080.67
 5.44992  6188.78
 5.46412  6317.57
 5.47832  6459.77
 5.49253  6627.11
 5.50673  6818.92
 5.52093  7031.98
 5.53513  7267.27
 5.54933  7566.4
 5.56354  7914.34
 5.57774  8243.91
 5.59194  8507.88
 5.60614  8718.43
 5.62034  8930.81
 5.63454  9130.23
 5.64875  9304.34
 5.66295  9442.51
 5.67715  9540.96
 5.69135  9603.24
 5.70555  9623.97
 5.71975  9594.81
 5.73396  9550.43
 5.74816  9517.2
 5.76236  9523.53
 5.77656  9575.44
 5.79076  9599.52
 5.80497  9500.35
 5.81917  9295.58
 5.83337  9072.98
 5.84757  8984.91
 5.86177  9250.66
 5.87597  10261
 5.89018  12020.6
 5.90438  13207.4
 5.91858  12606.8
 5.93278  10759.9
 5.94698  9172.71
 5.96118  8371.92
 5.97539  7988.11
 5.98959  7762.71
 6.00379  7600.08
 6.01799  7472.85
 6.03219  7374.77
 6.04639  7294.51
 6.0606  7222.48
 6.0748  7149.68
 6.089  7077.09
 6.1032  7009.21
 6.1174  6961.01
 6.13161  6928.9
 6.14581  6936.19
 6.16001  6984.37
 6.17421  7015.27
 6.18841  7007.1
 6.20261  6966.28
 6.21682  6938.38
 6.23102  6941.47
 6.24522  6940.8
 6.25942  6864.4
 6.27362  6718.49
 6.28782  6568.79
 6.30203  6478.95
 6.31623  6452.01
 6.33043  6456.88
 6.34463  6468.8
 6.35883  6522.35
 6.37304  6712.11
 6.38724  7258.67
 6.40144  8667.8
 6.41564  11381.4
 6.42984  14301.2
 6.44404  15096.4
 6.45825  13116.9
 6.47245  10221.4
 6.48665  8315.41
 6.50085  7468.16
 6.51505  7170.37
 6.52925  7085.66
 6.54346  7065.29
 6.55766  7027.54
 6.57186  6950.81
 6.58606  6839.23
 6.60026  6713.79
 6.61447  6598.91
 6.62867  6494.07
 6.64287  6417.69
 6.65707  6357.26
 6.67127  6338.5
 6.68547  6381.31
 6.69968  6512.93
 6.71388  6679.2
 6.72808  6781.22
 6.74228  6796.66
 6.75648  6729.75
 6.77068  6591.25
 6.78489  6408.58
 6.79909  6271.35
 6.81329  6195.01
 6.82749  6149.52
 6.84169  6114.93
 6.85589  6099.45
 6.8701  6074.09
 6.8843  6031.14
 6.8985  5987.95
 6.9127  5983.83
 6.9269  6042.29
 6.94111  6176.84
 6.95531  6366
 6.96951  6530.64
 6.98371  6568.35
 6.99791  6438.15
 7.01211  6217.9
 7.02632  6020.57
 7.04052  5898.1
 7.05472  5846.37
 7.06892  5835.62
 7.08312  5875.55
 7.09732  5992.3
 7.11153  6163.96
 7.12573  6279.69
 7.13993  6232.96
 7.15413  6054.42
 7.16833  5883.27
 7.18254  5777.14
 7.19674  5705.48
 7.21094  5644.89
 7.22514  5586.87
 7.23934  5542.08
 7.25354  5511.17
 7.26775  5500.55
 7.28195  5486.33
 7.29615  5466.38
 7.31035  5449.2
 7.32455  5437.93
 7.33875  5439.43
 7.35296  5447.62
 7.36716  5468.9
 7.38136  5492.21
 7.39556  5494.19
 7.40976  5484
 7.42396  5475.44
 7.43817  5509.44
 7.45237  5634.7
 7.46657  5887.03
 7.48077  6247.33
 7.49497  6617.48
 7.50918  6807.06
 7.52338  6720.73
 7.53758  6544.31
 7.55178  6658.18
 7.56598  7321.29
 7.58018  8423.25
 7.59439  9485.19
 7.60859  9801.56
 7.62279  9131.41
 7.63699  7951.68
 7.65119  6915.87
 7.66539  6241.29
 7.6796  5837.56
 7.6938  5605.39
 7.708  5482.45
 7.7222  5401.14
 7.7364  5350.84
 7.75061  5315.81
 7.76481  5286.46
 7.77901  5272.66
 7.79321  5263.53
 7.80741  5256.63
 7.82161  5257.36
 7.83582  5264.53
 7.85002  5304.27
 7.86422  5416.83
 7.87842  5576.58
 7.89262  5668.82
 7.90682  5599.33
 7.92103  5414.23
 7.93523  5254.38
 7.94943  5186.59
 7.96363  5202.93
 7.97783  5289.65
 7.99203  5395.27
 8.00624  5449.23
 8.02044  5402.6
 8.03464  5287.61
 8.04884  5163.29
 8.06304  5084.62
 8.07725  5066.42
 8.09145  5106.67
 8.10565  5145.58
 8.11985  5147.21
 8.13405  5143.01
 8.14825  5206.61
 8.16246  5352.92
 8.17666  5454.51
 8.19086  5405.03
 8.20506  5215.31
 8.21926  5002.92
 8.23346  4841.52
 8.24767  4738.48
 8.26187  4677.57
 8.27607  4652.75
 8.29027  4645.92
 8.30447  4658.46
 8.31868  4660.86
 8.33288  4709.68
 8.34708  4808.87
 8.36128  4893.03
 8.37548  4903.79
 8.38968  4845.6
 8.40389  4787
 8.41809  4790.84
 8.43229  4881.84
 8.44649  4992.74
 8.46069  5014.97
 8.47489  4909.01
 8.4891  4753.08
 8.5033  4632.75
 8.5175  4570.68
 8.5317  4546.61
 8.5459  4548.66
 8.5601  4577.62
 8.57431  4627.17
 8.58851  4709.59
 8.60271  4808.39
 8.61691  4909.13
 8.63111  5006.78
 8.64532  5146.63
 8.65952  5321.95
 8.67372  5432.47
 8.68792  5469.29
 8.70212  5602.51
 8.71632  6039.63
 8.73053  6607.61
 8.74473  6836.7
 8.75893  6470.45
 8.77313  5776.22
 8.78733  5176.16
 8.80153  4823.33
 8.81574  4640.94
 8.82994  4555.88
 8.84414  4512.69
 8.85834  4488.07
 8.87254  4473.32
 8.88675  4470.64
 8.90095  4491.88
 8.91515  4524.88
 8.92935  4546.18
 8.94355  4554
 8.95775  4572.62
 8.97196  4589.51
 8.98616  4574.75
 9.00036  4516.46
 9.01456  4439.74
 9.02876  4380.61
 9.04296  4338.71
 9.05717  4318.99
 9.07137  4307.62
 9.08557  4299.17
 9.09977  4292.35
 9.11397  4281.1
 9.12817  4272.6
 9.14238  4261.32
 9.15658  4257.89
 9.17078  4255.97
 9.18498  4256.72
 9.19918  4253.96
 9.21339  4257.75
 9.22759  4262.85
 9.24179  4271.51
 9.25599  4283.73
 9.27019  4292.03
 9.28439  4304.99
 9.2986  4311.34
 9.3128  4317.68
 9.327  4327.24
 9.3412  4343.09
 9.3554  4360.91
 9.3696  4387.78
 9.38381  4422.83
 9.39801  4450.91
 9.41221  4487.7
 9.42641  4545.98
 9.44061  4631.12
 9.45481  4737.95
 9.46902  4847.58
 9.48322  4956.97
 9.49742  5063.48
 9.51162  5120.48
 9.52582  5111.34
 9.54003  5070.04
 9.55423  5072.93
 9.56843  5155.31
 9.58263  5336.21
 9.59683  5584.75
 9.61103  5812.35
 9.62524  5997.68
 9.63944  6274.1
 9.65364  6637.69
 9.66784  6853.56
 9.68204  6838.21
 9.69625  6778.28
 9.71045  6788.15
 9.72465  6766.88
 9.73885  6670.76
 9.75305  6539.42
 9.76725  6448.2
 9.78145  6411.64
 9.79566  6413.86
 9.80986  6424.42
 9.82406  6413.47
 9.83826  6380.51
 9.85246  6357.45
 9.86667  6365.99
 9.88087  6381.95
 9.89507  6365.03
 9.90927  6293.12
 9.92347  6205.68
 9.93767  6125.93
 9.95188  6077.88
 9.96608  6055.28
 9.98028  6013.12
 9.99448  5918.23
 10.0087  5785.1
 10.0229  5661.12
 10.0371  5562.6
 10.0513  5495.66
 10.0655  5449.11
 10.0797  5409.34
 10.0939  5406.49
 10.1081  5403.18
 10.1223  5441.73
 10.1365  5511.04
 10.1507  5568.73
 10.1649  5541.52
 10.1791  5465.71
 10.1933  5354.07
 10.2075  5271.01
 10.2217  5232.23
 10.2359  5229.13
 10.2501  5253.47
 10.2643  5326.01
 10.2785  5434.28
 10.2927  5518.48
 10.3069  5498.3
 10.3211  5378.58
 10.3353  5223.22
 10.3495  5098.97
 10.3637  5011.5
 10.3779  4963.62
 10.3921  4948.64
 10.4063  4961.05
 10.4205  4980.34
 10.4347  4976.54
 10.4489  4944.18
 10.4631  4915.66
 10.4773  4903.78
 10.4915  4922.76
 10.5057  4960.98
 10.5199  5017.54
 10.5341  5081.8
 10.5483  5137.61
 10.5626  5161.23
 10.5768  5102
 10.591  4965.27
 10.6052  4811.16
 10.6194  4691.22
 10.6336  4611.95
 10.6478  4571.88
 10.662  4547.03
 10.6762  4534.93
 10.6904  4531.04
 10.7046  4524.08
 10.7188  4519.41
 10.733  4500.05
 10.7472  4474.16
 10.7614  4448.14
 10.7756  4420.02
 10.7898  4394.76
 10.804  4384.58
 10.8182  4370.72
 10.8324  4359.28
 10.8466  4352.3
 10.8608  4344.08
 10.875  4338.04
 10.8892  4337.99
 10.9034  4336.05
 10.9176  4340.53
 10.9318  4347.22
 10.946  4345.68
 10.9602  4344.58
 10.9744  4336.25
 10.9886  4327.38
 11.0028  4316.82
 11.017  4304.37
 11.0312  4302.21
 11.0454  4289.59
 11.0596  4289.9
 11.0738  4291.61
 11.088  4300.29
 11.1022  4308.65
 11.1164  4311.25
 11.1306  4323
 11.1448  4333.27
 11.159  4347.89
 11.1732  4362.22
 11.1874  4367.25
 11.2016  4372.12
 11.2158  4380.93
 11.23  4389.19
 11.2442  4396.91
 11.2584  4407.81
 11.2726  4431.46
 11.2868  4471.85
 11.301  4521.36
 11.3152  4562.51
 11.3294  4560.73
 11.3436  4518.35
 11.3578  4458.43
 11.3721  4414.09
 11.3863  4392.36
 11.4005  4375.9
 11.4147  4373.68
 11.4289  4374.89
 11.4431  4398.11
 11.4573  4430.1
 11.4715  4456.43
 11.4857  4462.53
 11.4999  4420.59
 11.5141  4357.86
 11.5283  4306.09
 11.5425  4273.21
 11.5567  4257.04
 11.5709  4247.62
 11.5851  4239.21
 11.5993  4232.77
 11.6135  4219.85
 11.6277  4215.32
 11.6419  4203.16
 11.6561  4196.25
 11.6703  4191.79
 11.6845  4201.21
 11.6987  4217.93
 11.7129  4242.22
 11.7271  4259.85
 11.7413  4270.97
 11.7555  4295.9
 11.7697  4340.81
 11.7839  4410.35
 11.7981  4476.6
 11.8123  4503.32
 11.8265  4502.98
 11.8407  4498.86
 11.8549  4531.26
 11.8691  4594.57
 11.8833  4634.52
 11.8975  4580.21
 11.9117  4451.35
 11.9259  4329.01
 11.9401  4233.3
 11.9543  4181.32
 11.9685  4158.01
 11.9827  4144.36
 11.9969  4136.87
 12.0111  4137.6
 12.0253  4145.91
 12.0395  4146.65
 12.0537  4152.06
 12.0679  4159.48
 12.0821  4164.29
 12.0963  4172.52
 12.1105  4179.41
 12.1247  4184.14
 12.1389  4187.03
 12.1531  4183.38
 12.1673  4155.03
 12.1816  4118.85
 12.1958  4084.76
 12.21  4047.03
 12.2242  4010.24
 12.2384  3953.08
 12.2526  3898.3
 12.2668  3859.38
 12.281  3835.5
 12.2952  3812.25
 12.3094  3802.45
 12.3236  3788.18
 12.3378  3789.75
 12.352  3786.76
 12.3662  3791.3
 12.3804  3796.7
 12.3946  3810.54
 12.4088  3835.86
 12.423  3871.29
 12.4372  3907.98
 12.4514  3935.43
 12.4656  3927.26
 12.4798  3899.36
 12.494  3860.81
 12.5082  3832.15
 12.5224  3820.96
 12.5366  3810.63
 12.5508  3788.3
 12.565  3764.27
 12.5792  3733.66
 12.5934  3702.34
 12.6076  3677.53
 12.6218  3657.31
 12.636  3648.95
 12.6502  3642.17
 12.6644  3639.27
 12.6786  3645.24
 12.6928  3643.39
 12.707  3636.07
 12.7212  3626.21
 12.7354  3610.48
 12.7496  3609.85
 12.7638  3606.45
 12.778  3594.36
 12.7922  3590.78
 12.8064  3599.68
 12.8206  3606.65
 12.8348  3624.43
 12.849  3669.94
 12.8632  3727.68
 12.8774  3789.72
 12.8916  3858.91
 12.9058  3885.71
 12.92  3844.14
 12.9342  3772.96
 12.9484  3704.56
 12.9626  3657.39
 12.9768  3624.31
 12.9911  3607.27
 13.0053  3595.58
 13.0195  3596.06
 13.0337  3596.43
 13.0479  3606.71
 13.0621  3611.01
 13.0763  3614.44
 13.0905  3610.11
 13.1047  3613.2
 13.1189  3626.79
 13.1331  3649.25
 13.1473  3672.11
 13.1615  3679.91
 13.1757  3682.65
 13.1899  3717.22
 13.2041  3765.91
 13.2183  3778.79
 13.2325  3767.82
 13.2467  3718.17
 13.2609  3687.45
 13.2751  3677.69
 13.2893  3681.79
 13.3035  3706.28
 13.3177  3694.93
 13.3319  3667.18
 13.3461  3633.44
 13.3603  3628.64
 13.3745  3611.81
 13.3887  3601.61
 13.4029  3599.27
 13.4171  3608.62
 13.4313  3616.04
 13.4455  3653.3
 13.4597  3695.34
 13.4739  3726.1
 13.4881  3739.84
 13.5023  3733.03
 13.5165  3698.45
 13.5307  3667.55
 13.5449  3610.08
 13.5591  3543.11
 13.5733  3487.24
 13.5875  3445.34
 13.6017  3413.32
 13.6159  3401.91
 13.6301  3399.18
 13.6443  3401.33
 13.6585  3403.34
 13.6727  3397.75
 13.6869  3371.82
 13.7011  3353.85
 13.7153  3361.99
 13.7295  3379.67
 13.7437  3417.58
 13.7579  3431.74
 13.7721  3438.94
 13.7863  3415.75
 13.8005  3388.52
 13.8148  3345.25
 13.829  3309.55
 13.8432  3289.02
 13.8574  3258.09
 13.8716  3209.94
 13.8858  3166.51
 13.9  3144.6
 13.9142  3105.13
 13.9284  3068.44
 13.9426  3030.23
 13.9568  2981.63
 13.971  2887.91
 13.9852  2763.59
 13.9994  2669.24
 14.0136  2546.68
 14.0278  2406.07
 14.042  2269.96
 14.0562  2183.82
 14.0704  2141.41
 14.0846  1985.65
 14.0988  1902.17
 14.113  1613.26
 14.1272  1258.32
 14.1414  790.292
 14.1556  374.192
 14.1698  0.0000000E+00
 14.184  0.0000000E+00
 14.1982  0.0000000E+00