File: asc_to_csv/example/asc/050121_LMO-p.asc
*TYPE		=  Raw
*CLASS		=  ASCII CLASS
*SAMPLE		=  050121_LMO-p.ras
*COMMENT	=
*FNAME		=  050121_LMO-p_Theta_2-Theta.asc
*DATE		=  05-Jan-21 12:55

*GROUP_COUNT	=  1
*GONIO		=  MiniFlex 300/600 +, 150
*ATTACHMENT	=  ASC-6
*ASC		=  0, 0, 0.000000, 0.000000
*FILTER		=  K-beta(x1)
*C_MONOCHRO	=  None, 0.000000
*SLIT_NAME	=  0, IHS
*SLIT_NAME	=  1, DS
*SLIT_NAME	=  2, SS
*SLIT_NAME	=  3, RS
*COUNTER	=  D/teX Ultra, 0
*POS_FORMAT	=  0
*SCAN_AXIS	=  2theta/theta
*MEAS_MODE	=  Continuous Scanning
*TARGET		=  29
*XRAY_CHAR	=  K-ALPHA
*WAVE_LENGTH1	=  1.54059
*WAVE_LENGTH2	=  1.54441
*THICKNESS	=  0, 0.000000
*MU		=  0, 0.000000
*SCAN_MODE	=  2theta/theta
*SPEED_DIM	=  sec./step
*XUNIT		=  deg.
*YUNIT		=  counts
*SCALE_MODE	=  1
*REP_COUNT	=  0
*SE_COUNT	=  0
*STD_MATERIAL	=  Unknown, Unknown, 0.000000, 0.000000, 0.000000, 0.000000, 0.000000, 0.000000
*LATT_CONS	=  0, Unknown, Unknown, 0.000000, 0.000000, 0.000000, 0.000000, 0.000000, 0.000000
*SEC_COUNT	=  1
*TSPEC_SIZE	=  0
*EXTRA_SIZE	=  0
*MEMO		=

*BEGIN
*GROUP		=  0
*START		=  3
*STOP		=  90
*STEP		=  0.02
*OFFSET		=  0.000000
*SPEED		=  0.24
*SLIT_SPEC	=  0, 10.0mm, 10, 0.000000
*SLIT_SPEC	=  1, 0.625deg, 0.625, 0.000000
*SLIT_SPEC	=  2, 13.0mm, 13, 0.000000
*SLIT_SPEC	=  3, 13.0mm, 13, 0.000000
*KV		=  40
*MA		=  15
*LOW		=  0.000000
*HIGH		=  0.000000
*CTEMPER	=  0, 0.000000
*CTEMPER	=  1, 0.000000
*CTEMPER	=  2, 0.000000
*PAREX		=  0, 0.000000
*PAREX		=  1, 0.000000
*PAREX		=  2, 0.000000
*PAREX		=  3, 0.000000
*PAREX		=  4, 0.000000
*PAREX		=  5, 0.000000
*PAREX		=  6, 0.000000
*PAREX		=  7, 0.000000
*PAREX		=  8, 0.000000
*PAREX		=  9, 0.000000
*PAREX		=  10, 0.000000
*PAREX		=  11, 0.000000
*PAREX		=  12, 0.000000
*PAREX		=  13, 0.000000
*PAREX		=  14, 0.000000
*PAREX		=  15, 0.000000
*FULL_SCALE	=  47785
*INDEX		=  0, 0, 0
*COUNT		=  4351
822, 836, 818, 805
797, 797, 803, 806
815, 812, 777, 789
807, 785, 785, 783
807, 805, 768, 780
787, 775, 781, 796
781, 783, 797, 780
785, 774, 769, 800
790, 745, 751, 763
771, 755, 742, 782
787, 768, 780, 786
780, 788, 770, 762
750, 764, 766, 774
785, 802, 783, 761
767, 749, 783, 804
788, 763, 760, 782
807, 806, 800, 813
791, 796, 796, 769
777, 779, 744, 770
814, 821, 797, 779
752, 781, 809, 811
854, 846, 827, 843
828, 823, 843, 822
815, 815, 831, 821
819, 807, 792, 793
792, 805, 823, 826
848, 846, 852, 875
862, 831, 871, 870
843, 865, 900, 847
823, 865, 885, 870
870, 881, 890, 922
894, 862, 846, 852
872, 887, 909, 898
867, 854, 876, 892
905, 898, 886, 902
917, 877, 904, 910
897, 904, 919, 922
944, 979, 950, 916
925, 917, 921, 910
938, 926, 926, 945
933, 959, 944, 960
969, 961, 947, 968
974, 939, 916, 919
952, 976, 976, 979
988, 1002, 977, 957
992, 1010, 1000, 964
967, 986, 975, 976
1017, 989, 977, 977
955, 967, 986, 968
944, 977, 1022, 1002
1016, 1021, 1030, 1036
985, 997, 1035, 1025
1039, 1040, 1006, 998
1026, 1018, 1006, 1005
1014, 1014, 1012, 1038
1059, 1058, 1078, 1040
1022, 1056, 1044, 1080
1084, 1061, 1079, 1125
1094, 1078, 1046, 1066
1111, 1081, 1093, 1066
1057, 1090, 1108, 1091
1095, 1112, 1128, 1071
1090, 1134, 1119, 1097
1096, 1123, 1102, 1087
1071, 1070, 1073, 1123
1112, 1147, 1138, 1136
1104, 1103, 1123, 1107
1146, 1166, 1115, 1138
1126, 1113, 1118, 1092
1149, 1225, 1180, 1127
1115, 1152, 1166, 1112
1112, 1161, 1158, 1163
1174, 1178, 1169, 1174
1168, 1146, 1145, 1153
1176, 1195, 1181, 1159
1180, 1153, 1156, 1159
1114, 1158, 1208, 1169
1145, 1177, 1208, 1201
1203, 1186, 1208, 1195
1211, 1214, 1142, 1185
1211, 1218, 1204, 1192
1227, 1231, 1211, 1227
1215, 1185, 1212, 1188
1242, 1229, 1245, 1244
1218, 1195, 1212, 1241
1250, 1251, 1223, 1207
1238, 1201, 1210, 1247
1217, 1250, 1233, 1258
1209, 1233, 1232, 1243
1253, 1211, 1240, 1253
1244, 1235, 1253, 1256
1239, 1243, 1259, 1294
1265, 1296, 1260, 1299
1263, 1261, 1266, 1299
1309, 1273, 1304, 1288
1266, 1279, 1285, 1290
1280, 1268, 1305, 1317
1267, 1251, 1237, 1277
1320, 1333, 1325, 1328
1335, 1309, 1330, 1267
1278, 1314, 1296, 1334
1312, 1388, 1363, 1331
1369, 1331, 1331, 1297
1312, 1334, 1314, 1317
1346, 1280, 1303, 1362
1347, 1323, 1355, 1293
1312, 1338, 1332, 1328
1372, 1380, 1361, 1360
1385, 1316, 1358, 1378
1363, 1395, 1341, 1331
1340, 1331, 1360, 1320
1347, 1367, 1365, 1394
1370, 1358, 1368, 1397
1390, 1393, 1351, 1397
1391, 1421, 1390, 1366
1379, 1347, 1370, 1384
1363, 1346, 1368, 1375
1393, 1363, 1377, 1375
1363, 1411, 1391, 1360
1404, 1405, 1395, 1367
1366, 1376, 1392, 1393
1419, 1423, 1390, 1352
1393, 1411, 1418, 1375
1380, 1357, 1374, 1368
1421, 1409, 1435, 1414
1401, 1420, 1431, 1405
1360, 1419, 1369, 1403
1414, 1392, 1452, 1462
1420, 1404, 1423, 1406
1375, 1402, 1413, 1396
1384, 1381, 1433, 1435
1411, 1397, 1422, 1401
1397, 1390, 1398, 1378
1365, 1393, 1402, 1332
1383, 1408, 1423, 1423
1430, 1413, 1431, 1410
1420, 1394, 1383, 1355
1369, 1351, 1315, 1371
1403, 1414, 1421, 1441
1400, 1378, 1401, 1401
1459, 1419, 1396, 1379
1405, 1384, 1424, 1411
1389, 1353, 1391, 1402
1410, 1456, 1442, 1417
1389, 1379, 1354, 1406
1371, 1380, 1393, 1417
1425, 1422, 1428, 1414
1404, 1377, 1388, 1430
1393, 1421, 1405, 1399
1442, 1360, 1433, 1405
1415, 1486, 1391, 1394
1362, 1404, 1428, 1422
1411, 1401, 1403, 1461
1406, 1395, 1418, 1412
1386, 1383, 1385, 1342
1379, 1406, 1358, 1333
1351, 1435, 1444, 1424
1375, 1366, 1346, 1364
1358, 1340, 1387, 1404
1391, 1376, 1366, 1381
1366, 1364, 1325, 1317
1351, 1342, 1355, 1342
1360, 1387, 1359, 1369
1355, 1362, 1357, 1377
1343, 1355, 1356, 1314
1335, 1374, 1331, 1334
1363, 1387, 1392, 1302
1325, 1322, 1384, 1362
1339, 1333, 1328, 1363
1308, 1311, 1286, 1280
1323, 1367, 1387, 1389
1341, 1306, 1335, 1322
1374, 1343, 1341, 1341
1325, 1339, 1352, 1318
1322, 1323, 1322, 1333
1373, 1348, 1384, 1347
1319, 1343, 1324, 1302
1293, 1312, 1358, 1354
1309, 1355, 1377, 1356
1402, 1370, 1317, 1362
1328, 1329, 1375, 1357
1339, 1338, 1345, 1370
1340, 1383, 1394, 1370
1398, 1306, 1310, 1357
1400, 1376, 1332, 1368
1350, 1417, 1438, 1386
1352, 1436, 1462, 1427
1392, 1358, 1380, 1461
1479, 1447, 1424, 1413
1421, 1416, 1454, 1458
1480, 1520, 1507, 1533
1553, 1523, 1620, 1654
1691, 1707, 1739, 1762
1877, 1995, 2111, 2245
2513, 2812, 3258, 3986
5010, 6438, 7953, 9278
9557, 9036, 8001, 6697
5549, 4678, 3974, 3441
2934, 2615, 2376, 2222
2048, 1921, 1913, 1765
1736, 1722, 1646, 1607
1612, 1566, 1564, 1569
1568, 1500, 1499, 1523
1506, 1501, 1496, 1464
1476, 1470, 1502, 1504
1498, 1432, 1454, 1412
1424, 1429, 1408, 1338
1416, 1425, 1425, 1412
1419, 1435, 1426, 1382
1401, 1406, 1404, 1434
1388, 1395, 1424, 1408
1421, 1382, 1366, 1376
1363, 1436, 1412, 1423
1408, 1397, 1400, 1391
1376, 1398, 1401, 1376
1420, 1445, 1436, 1366
1345, 1379, 1371, 1434
1413, 1436, 1426, 1372
1353, 1399, 1373, 1390
1392, 1365, 1355, 1346
1362, 1374, 1378, 1326
1364, 1383, 1336, 1307
1345, 1368, 1384, 1383
1369, 1307, 1314, 1349
1380, 1425, 1356, 1354
1341, 1326, 1331, 1309
1355, 1355, 1341, 1360
1358, 1364, 1348, 1337
1330, 1336, 1284, 1319
1285, 1310, 1317, 1342
1325, 1303, 1341, 1346
1315, 1306, 1299, 1285
1301, 1365, 1342, 1338
1374, 1344, 1316, 1282
1303, 1281, 1287, 1288
1344, 1325, 1234, 1274
1299, 1270, 1300, 1299
1273, 1285, 1265, 1243
1277, 1249, 1266, 1267
1270, 1274, 1272, 1265
1239, 1273, 1261, 1220
1270, 1238, 1249, 1274
1279, 1265, 1205, 1224
1213, 1204, 1235, 1234
1213, 1244, 1233, 1216
1163, 1211, 1285, 1259
1205, 1223, 1229, 1227
1187, 1190, 1185, 1179
1232, 1262, 1252, 1224
1206, 1176, 1171, 1214
1218, 1224, 1206, 1190
1225, 1232, 1314, 1332
1329, 1313, 1291, 1286
1212, 1204, 1151, 1169
1162, 1122, 1132, 1164
1150, 1132, 1156, 1157
1175, 1186, 1167, 1139
1104, 1107, 1141, 1159
1110, 1124, 1162, 1178
1145, 1154, 1118, 1129
1166, 1152, 1114, 1069
1111, 1123, 1125, 1093
1093, 1097, 1104, 1125
1092, 1100, 1078, 1100
1067, 1073, 1089, 1089
1102, 1077, 1069, 1047
1093, 1108, 1091, 1057
1054, 1063, 1062, 1076
1049, 1028, 1075, 1086
1079, 1062, 1049, 1081
1035, 1035, 1037, 1045
1003, 949, 987, 1029
1023, 998, 1006, 1016
1013, 1029, 1013, 1030
1053, 1026, 1008, 1015
1046, 1032, 981, 1012
1029, 1021, 1015, 985
985, 994, 985, 987
963, 957, 999, 993
969, 993, 985, 948
982, 988, 1007, 1030
968, 945, 970, 966
989, 955, 927, 947
966, 946, 963, 971
971, 952, 939, 963
978, 945, 931, 918
954, 947, 949, 958
924, 907, 921, 953
941, 935, 948, 948
939, 930, 928, 923
928, 941, 951, 946
958, 924, 898, 894
911, 922, 920, 899
874, 884, 925, 933
930, 927, 929, 939
904, 889, 866, 855
892, 895, 874, 859
871, 882, 906, 921
867, 874, 875, 895
909, 880, 869, 864
868, 877, 860, 862
892, 862, 850, 862
881, 844, 857, 877
871, 873, 872, 875
883, 882, 867, 865
872, 884, 876, 859
853, 855, 830, 852
881, 863, 858, 868
873, 885, 876, 855
876, 853, 853, 834
807, 840, 861, 848
839, 838, 829, 837
814, 841, 879, 872
843, 859, 876, 847
830, 849, 835, 822
849, 841, 844, 843
837, 827, 802, 792
794, 819, 866, 854
814, 821, 824, 849
860, 823, 810, 796
820, 831, 819, 814
797, 797, 811, 809
803, 817, 787, 779
815, 790, 784, 811
825, 809, 802, 804
802, 800, 800, 786
779, 812, 802, 788
794, 814, 774, 739
777, 815, 786, 771
792, 816, 824, 807
805, 800, 799, 794
789, 790, 791, 784
767, 783, 792, 792
797, 787, 782, 783
753, 756, 777, 789
787, 764, 759, 769
779, 779, 767, 779
799, 802, 808, 799
787, 793, 793, 760
778, 795, 769, 763
758, 762, 788, 801
785, 772, 763, 779
798, 789, 788, 796
757, 729, 733, 755
761, 749, 778, 778
776, 771, 782, 798
777, 780, 798, 797
801, 808, 790, 769
762, 774, 776, 754
766, 779, 773, 774
757, 774, 780, 741
730, 733, 734, 736
766, 782, 784, 797
779, 768, 775, 768
736, 720, 727, 773
768, 746, 752, 737
732, 734, 746, 742
734, 750, 743, 714
735, 737, 727, 742
732, 710, 714, 717
728, 747, 737, 715
717, 736, 746, 747
737, 743, 758, 759
746, 741, 751, 739
719, 709, 712, 730
731, 741, 750, 757
770, 765, 741, 726
719, 718, 698, 728
735, 694, 700, 716
713, 723, 721, 712
722, 730, 748, 748
758, 758, 752, 763
755, 757, 786, 810
830, 885, 953, 1046
1157, 1271, 1369, 1316
1223, 1176, 1120, 1043
952, 891, 837, 792
767, 751, 753, 761
745, 728, 731, 742
730, 695, 697, 728
749, 729, 703, 706
742, 736, 728, 744
722, 702, 714, 719
708, 713, 718, 695
717, 725, 716, 764
739, 714, 730, 716
730, 732, 714, 700
697, 715, 725, 709
689, 690, 729, 721
700, 696, 708, 704
712, 691, 663, 691
715, 699, 700, 698
695, 731, 723, 721
732, 725, 707, 713
704, 684, 679, 695
726, 721, 711, 687
687, 683, 691, 702
713, 710, 699, 710
713, 695, 695, 708
727, 736, 740, 736
701, 671, 711, 711
696, 705, 702, 698
708, 689, 709, 716
734, 742, 717, 719
734, 732, 735, 740
750, 759, 750, 722
713, 749, 776, 747
755, 777, 785, 811
805, 782, 786, 799
817, 835, 820, 814
829, 807, 820, 889
946, 1005, 1006, 1063
1148, 1222, 1322, 1450
1635, 1870, 2168, 2562
2885, 3254, 3513, 3546
3496, 3418, 3215, 3061
2831, 2548, 2273, 1998
1826, 1739, 1626, 1520
1423, 1323, 1239, 1191
1135, 1093, 1015, 945
922, 891, 888, 850
806, 815, 826, 791
773, 769, 758, 759
731, 729, 711, 732
736, 739, 737, 697
713, 737, 707, 715
733, 719, 722, 707
716, 740, 734, 731
717, 705, 728, 740
742, 717, 668, 663
697, 715, 715, 728
718, 731, 736, 718
721, 707, 691, 705
742, 760, 782, 843
879, 920, 998, 1101
1236, 1293, 1306, 1298
1292, 1252, 1207, 1143
1087, 1035, 950, 914
897, 851, 831, 810
804, 817, 824, 802
798, 815, 820, 817
797, 788, 764, 739
724, 723, 705, 694
717, 725, 696, 681
668, 664, 677, 669
675, 652, 627, 644
660, 694, 685, 660
648, 653, 646, 639
666, 680, 670, 653
660, 675, 665, 659
634, 640, 639, 641
647, 653, 687, 693
674, 649, 681, 661
660, 684, 667, 656
644, 626, 638, 647
661, 647, 630, 638
632, 638, 642, 641
644, 648, 651, 624
654, 688, 665, 652
659, 684, 666, 656
664, 677, 687, 672
659, 674, 659, 610
591, 610, 658, 654
652, 650, 656, 660
628, 636, 642, 666
680, 661, 677, 653
622, 678, 645, 653
643, 644, 654, 665
642, 619, 643, 651
608, 609, 622, 625
628, 653, 668, 668
647, 670, 652, 645
645, 630, 644, 624
599, 640, 664, 634
642, 684, 664, 653
652, 647, 651, 667
664, 656, 620, 641
648, 618, 635, 656
641, 623, 638, 640
623, 626, 639, 654
655, 622, 643, 659
644, 647, 651, 634
613, 602, 610, 638
657, 666, 654, 620
636, 626, 633, 628
633, 638, 640, 630
635, 638, 625, 619
640, 625, 626, 647
643, 654, 647, 657
654, 630, 632, 646
657, 670, 661, 655
666, 643, 641, 634
647, 662, 663, 639
619, 604, 634, 646
657, 644, 643, 643
619, 645, 662, 657
651, 684, 668, 636
646, 614, 634, 678
646, 659, 699, 674
648, 643, 689, 685
678, 677, 651, 643
664, 665, 686, 703
649, 680, 695, 690
688, 688, 694, 675
697, 730, 707, 698
703, 765, 780, 763
771, 768, 793, 812
863, 871, 860, 875
922, 920, 965, 1050
1112, 1181, 1224, 1307
1443, 1574, 1701, 1880
2183, 2474, 2844, 3102
3253, 3316, 3290, 3174
3102, 3030, 2879, 2718
2543, 2296, 2205, 2053
1881, 1769, 1691, 1598
1515, 1417, 1322, 1299
1223, 1143, 1102, 1093
1046, 991, 937, 898
848, 821, 825, 825
786, 776, 752, 762
763, 743, 712, 694
722, 733, 744, 720
714, 703, 694, 708
674, 652, 691, 673
643, 631, 646, 638
661, 684, 683, 667
673, 697, 708, 673
693, 694, 686, 663
655, 661, 659, 636
654, 657, 675, 656
660, 639, 608, 642
639, 626, 654, 656
654, 652, 652, 644
623, 618, 637, 648
639, 626, 637, 630
648, 644, 652, 633
609, 614, 633, 624
658, 638, 636, 617
617, 628, 598, 615
634, 640, 603, 608
622, 616, 616, 632
615, 617, 603, 597
619, 633, 638, 635
626, 608, 606, 602
608, 636, 652, 650
625, 616, 603, 597
621, 630, 651, 656
626, 625, 632, 611
605, 605, 612, 605
621, 652, 634, 641
615, 594, 589, 634
623, 647, 646, 630
630, 645, 630, 628
627, 606, 606, 622
619, 622, 634, 628
619, 613, 578, 596
594, 612, 643, 640
628, 631, 640, 639
639, 634, 637, 629
626, 644, 668, 665
673, 690, 711, 700
711, 736, 763, 788
833, 886, 985, 1034
1078, 1115, 1127, 1109
1075, 1047, 1026, 1007
997, 974, 942, 880
858, 849, 802, 790
778, 725, 716, 718
725, 714, 697, 705
711, 683, 662, 660
649, 636, 645, 644
647, 640, 645, 624
607, 599, 603, 618
613, 615, 632, 640
611, 614, 610, 606
614, 594, 604, 621
614, 603, 606, 619
641, 625, 609, 648
678, 677, 694, 668
614, 611, 647, 662
640, 620, 617, 628
610, 607, 609, 610
610, 635, 632, 600
598, 620, 625, 610
609, 628, 620, 588
603, 615, 596, 586
595, 595, 603, 574
559, 573, 583, 609
631, 603, 597, 631
614, 610, 620, 609
597, 601, 594, 595
587, 591, 607, 627
617, 602, 596, 601
602, 576, 569, 566
588, 609, 580, 596
633, 624, 623, 634
650, 637, 619, 603
573, 574, 603, 616
598, 585, 603, 618
607, 612, 617, 602
589, 594, 601, 585
599, 630, 622, 615
607, 607, 621, 592
571, 577, 565, 574
603, 595, 584, 576
581, 602, 597, 605
618, 596, 586, 561
556, 602, 609, 602
606, 601, 610, 606
600, 600, 602, 605
606, 599, 583, 579
600, 594, 585, 596
596, 599, 595, 600
583, 584, 591, 609
626, 589, 578, 581
595, 614, 621, 620
616, 594, 586, 592
572, 573, 592, 583
576, 595, 588, 590
610, 595, 560, 549
568, 609, 614, 608
609, 595, 611, 608
585, 583, 590, 590
580, 589, 592, 574
574, 587, 579, 597
605, 581, 571, 581
563, 584, 625, 602
598, 616, 605, 593
608, 602, 590, 612
641, 620, 578, 580
586, 599, 601, 595
598, 602, 609, 593
581, 581, 566, 596
614, 609, 582, 563
588, 593, 563, 560
580, 569, 596, 595
563, 564, 594, 610
618, 617, 608, 622
614, 594, 590, 587
588, 581, 577, 591
594, 571, 569, 588
596, 579, 591, 609
609, 578, 568, 562
573, 605, 616, 605
614, 623, 594, 564
585, 590, 580, 582
584, 600, 591, 603
628, 613, 610, 590
591, 593, 592, 610
643, 602, 611, 651
660, 692, 730, 768
744, 717, 735, 729
708, 703, 699, 700
701, 669, 660, 659
646, 626, 607, 600
598, 592, 580, 599
597, 607, 619, 608
611, 605, 590, 604
628, 611, 614, 603
593, 600, 580, 570
585, 609, 611, 597
579, 567, 577, 575
577, 598, 615, 621
605, 588, 578, 569
576, 600, 580, 566
583, 591, 612, 626
586, 602, 628, 624
605, 597, 594, 597
595, 609, 587, 581
572, 591, 598, 588
569, 585, 588, 588
600, 593, 561, 554
586, 587, 587, 587
593, 605, 596, 619
610, 630, 599, 587
600, 579, 569, 586
588, 605, 616, 623
599, 606, 584, 574
618, 591, 597, 628
623, 622, 635, 621
621, 612, 580, 607
621, 600, 615, 626
631, 641, 662, 654
651, 686, 670, 677
660, 660, 685, 701
711, 749, 749, 774
793, 815, 839, 864
905, 977, 1041, 1114
1210, 1297, 1308, 1318
1319, 1256, 1277, 1269
1250, 1288, 1282, 1206
1143, 1067, 1025, 1020
987, 972, 954, 877
828, 832, 808, 765
803, 823, 764, 723
737, 710, 692, 696
716, 701, 704, 689
651, 629, 635, 648
642, 623, 602, 594
647, 620, 619, 607
598, 608, 605, 629
616, 587, 594, 607
583, 596, 584, 624
603, 582, 568, 578
625, 621, 626, 626
610, 603, 580, 580
579, 603, 613, 587
570, 578, 605, 580
614, 634, 595, 554
562, 596, 597, 559
561, 578, 622, 583
564, 602, 623, 602
578, 591, 577, 573
581, 609, 598, 590
617, 622, 594, 594
599, 588, 581, 570
595, 599, 604, 609
594, 569, 574, 581
588, 616, 610, 621
629, 629, 604, 608
617, 635, 640, 627
578, 570, 586, 589
629, 632, 616, 600
583, 602, 604, 590
577, 573, 580, 580
592, 593, 590, 590
612, 609, 577, 590
592, 590, 592, 572
601, 603, 613, 601
572, 568, 574, 552
576, 606, 590, 590
615, 591, 563, 564
584, 592, 574, 563
558, 581, 581, 578
585, 590, 591, 597
624, 619, 608, 618
609, 608, 580, 586
605, 615, 623, 606
604, 615, 561, 590
580, 571, 570, 563
595, 623, 606, 630
601, 593, 585, 610
604, 557, 552, 569
584, 567, 602, 603
585, 593, 603, 602
587, 580, 596, 620
592, 600, 617, 595
600, 613, 611, 608
625, 607, 597, 617
613, 579, 588, 614
632, 627, 603, 597
610, 593, 602, 637
625, 610, 618, 634
613, 626, 652, 647
681, 708, 710, 687
679, 687, 689, 718
731, 730, 767, 793
791, 811, 857, 896
962, 1000, 1072, 1161
1307, 1423, 1557, 1690
1783, 1828, 1812, 1801
1786, 1711, 1676, 1686
1608, 1615, 1574, 1493
1438, 1385, 1300, 1229
1136, 1099, 1061, 1056
1011, 1000, 954, 913
865, 875, 856, 828
830, 823, 783, 778
764, 753, 697, 751
719, 717, 670, 679
659, 641, 651, 640
612, 616, 637, 650
629, 631, 617, 603
601, 624, 639, 614
627, 630, 642, 648
622, 592, 601, 629
606, 609, 609, 593
616, 608, 579, 581
617, 592, 592, 628
603, 599, 605, 616
635, 609, 591, 606
635, 609, 604, 632
626, 634, 643, 677
649, 636, 649, 639
652, 654, 612, 656
663, 617, 649, 649
646, 630, 626, 590
585, 624, 624, 617
601, 601, 601, 582
581, 629, 647, 630
607, 584, 597, 606
627, 607, 586, 604
643, 626, 574, 572
580, 585, 577, 596
595, 602, 623, 626
637, 631, 620, 600
635, 635, 631, 678
686, 644, 626, 636
666, 680, 683, 691
706, 707, 741, 777
801, 888, 924, 903
1002, 1025, 1005, 1042
1027, 1045, 1049, 1003
998, 1008, 1008, 962
952, 957, 966, 935
882, 804, 790, 775
788, 764, 734, 741
741, 730, 689, 685
674, 691, 671, 652
667, 656, 639, 636
656, 648, 619, 615
624, 626, 620, 630
617, 625, 624, 606
598, 606, 621, 609
612, 594, 600, 589
561, 584, 607, 574
558, 572, 584, 574
584, 616, 582, 565
595, 596, 588, 590
580, 600, 583, 571
539, 561, 576, 580
571, 584, 618, 600
568, 589, 587, 592
577, 573, 588, 600
583, 582, 562, 573
607, 624, 595, 569
605, 593, 573, 568
578, 567, 578, 562
564, 592, 584, 591
606, 606, 600, 573
601, 611, 564, 570
574, 566, 592, 584
590, 604, 599, 596
587, 578, 579, 589
558, 569, 571, 556
588, 565, 571, 574
563, 557, 585, 588
587, 575, 613, 610
592, 571, 562, 551
563, 546, 568, 574
589, 591, 601, 569
553, 550, 545, 556
565, 586, 568, 583
590, 584, 558, 540
570, 569, 569, 576
570, 577, 573, 573
579, 576, 565, 570
567, 555, 552, 538
531, 573, 579, 549
550, 538, 560, 556
578, 591, 568, 585
583, 568, 573, 545
550, 579, 583, 579
567, 567, 556, 566
577, 563, 550, 571
580, 576, 546, 537
561, 598, 617, 566
554, 561, 571, 581
566, 552, 546, 548
572, 576, 571, 556
561, 573, 551, 547
560, 570, 563, 555
559, 546, 550, 571
563, 568, 559, 581
586, 557, 542, 538
569, 576, 561, 553
565, 561, 560, 547
542, 552, 548, 541
569, 584, 560, 579
564, 542, 570, 571
547, 546, 555, 581
591, 574, 570, 594
573, 551, 561, 573
577, 559, 564, 578
593, 567, 556, 598
589, 576, 563, 580
580, 575, 579, 565
565, 560, 559, 578
596, 590, 558, 564
562, 556, 590, 596
572, 570, 575, 586
594, 578, 548, 569
566, 554, 546, 550
573, 592, 589, 584
575, 601, 612, 588
599, 578, 564, 587
616, 591, 583, 588
601, 602, 587, 575
579, 591, 583, 573
557, 540, 568, 577
567, 576, 567, 541
555, 570, 568, 562
566, 565, 570, 584
563, 543, 554, 560
589, 606, 570, 560
570, 558, 580, 561
558, 584, 595, 594
594, 604, 614, 612
633, 615, 581, 544
544, 548, 554, 574
601, 601, 586, 552
539, 570, 601, 588
582, 586, 598, 600
571, 589, 610, 612
631, 608, 597, 603
611, 635, 653, 659
673, 689, 680, 713
737, 739, 766, 751
726, 709, 679, 690
701, 708, 710, 697
704, 700, 690, 690
692, 646, 607, 632
651, 666, 652, 607
600, 622, 630, 643
669, 674, 642, 622
602, 618, 651, 641
583, 569, 590, 609
636, 643, 612, 631
641, 671, 661, 654
692, 707, 707, 722
737, 773, 744, 735
740, 729, 736, 741
740, 724, 726, 718
717, 705, 713, 720
705, 685, 653, 664
638, 611, 635, 645
629, 615, 619, 606
608, 611, 612, 605
578, 606, 623, 603
596, 616, 590, 594
591, 600, 593, 584
593, 595, 600, 585
568, 566, 574, 556
547, 545, 573, 586
573, 554, 567, 595
587, 570, 571, 580
583, 600, 572, 562
589, 576, 576, 555
577, 585, 559, 590
580, 580, 582, 556
554, 549, 542, 539
542, 536, 546, 557
556, 564, 578, 572
553, 558, 572, 595
595, 562, 556, 557
558, 554, 577, 593
582, 546, 520, 553
551, 559, 574, 568
574, 574, 576, 572
565, 568, 561, 583
573, 573, 574, 574
557, 555, 568, 592
585, 561, 562, 575
578, 580, 570, 553
574, 568, 571, 548
566, 584, 547, 549
561, 595, 594, 581
589, 586, 568, 555
554, 535, 561, 587
585, 571, 565, 553
561, 584, 576, 556
574, 575, 583, 563
581, 589, 552, 552
571, 580, 608, 590
591, 577, 561, 572
589, 564, 553, 559
587, 616, 624, 609
567, 554, 579, 589
613, 630, 625, 638
637, 655, 646, 701
749, 757, 763, 802
847, 855, 849, 821
804, 803, 763, 732
750, 751, 751, 739
753, 742, 739, 746
750, 710, 705, 707
698, 684, 673, 635
618, 645, 619, 580
629, 649, 629, 627
624, 623, 626, 624
615, 618, 608, 608
582, 608, 631, 623
602, 585, 585, 579
578, 580, 571, 579
569, 571, 578, 579
588, 568, 537, 559
557, 549, 536, 562
562, 568, 588, 572
550, 549, 585, 604
594, 591, 568, 576
564, 559, 572, 572
564, 576, 589, 563
599, 577, 564, 566
549, 551, 568, 585
611, 607, 578, 554
574, 569, 574, 551
532, 549, 561, 555
574, 562, 558, 549
557, 568, 573, 583
579, 565, 554, 575
577, 578, 537, 565
581, 579, 578, 617
602, 592, 591, 579
578, 605, 605, 614
588, 572, 607, 627
603, 625, 596, 587
610, 594, 607, 626
634, 636, 643, 652
659, 678, 713, 739
733, 761, 721, 725
734, 710, 692, 686
693, 707, 700, 695
686, 684, 690, 663
668, 658, 640, 658
663, 646, 651, 604
637, 659, 646, 608
588, 595, 595, 612
629, 608, 615, 612
636, 593, 623, 617
602, 598, 578, 584
578, 579, 573, 577
568, 568, 562, 581
599, 587, 564, 550
524, 562, 568, 567
572, 578, 555, 587
572, 562, 564, 531
595, 574, 578, 582
573, 552, 554, 554
560, 542, 549, 546
570, 568, 563, 538
503, 509, 564, 552
557, 551, 552, 547
548, 573, 546, 574
564, 526, 539, 570
553, 577, 606, 592
547, 529, 545, 572
575, 551, 543, 563
577, 548, 550, 538
550, 560, 553, 536
551, 538, 535, 564
558, 572, 569, 569
562, 557, 580, 569
555, 544, 560, 535
588, 582, 559, 527
566, 575, 565, 537
561, 566, 546, 555
543, 531, 534, 542
556, 547, 547, 534
562, 561, 538, 533
555, 561, 545, 530
564, 560, 538, 553
533, 540, 529, 540
566, 546, 535, 567
566, 530, 545, 555
530, 554, 556, 556
561, 567, 606, 558
558, 550, 529, 542
549, 537, 553, 562
570, 551, 531, 522
535, 560, 571, 589
566, 563, 541, 551
577, 580, 580, 537
575, 600, 602, 578
558, 537, 539, 556
589, 570, 534, 563
570, 561, 557, 536
537, 545, 537, 558
571, 529, 555, 553
554, 543, 552, 565
576, 564, 580, 562
575, 562, 567, 559
572, 586, 557, 555
536, 532, 558, 563
545, 544, 526, 540
536, 534, 559, 562
579, 572, 548, 551
533, 494, 544, 584
550, 557, 535, 544
537, 544, 538, 555
534, 552, 566, 566
539, 547, 571, 602
576, 555, 553, 576
564, 578, 559, 558
586, 558, 556, 571
575, 561, 544, 537
535, 544, 534, 522
575, 594, 594
*END

*EOF