File: asc_to_csv/example/asc/210721_NMC_first.asc
*TYPE		=  Raw
*CLASS		=  ASCII CLASS
*SAMPLE		=  210721_NMC_first
*COMMENT	=
*FNAME		=  210721_NMC_first_Theta_2-Theta.asc
*DATE		=  21-Jul-21 11:11

*GROUP_COUNT	=  1
*GONIO		=  MiniFlex 300/600 +, 150
*ATTACHMENT	=  ASC-6
*ASC		=  0, 0, 0.000000, 0.000000
*FILTER		=  K-beta(x1)
*C_MONOCHRO	=  None, 0.000000
*SLIT_NAME	=  0, IHS
*SLIT_NAME	=  1, DS +
*SLIT_NAME	=  2, SS
*SLIT_NAME	=  3, RS
*COUNTER	=  D/teX Ultra, 0
*POS_FORMAT	=  0
*SCAN_AXIS	=  2theta/theta
*MEAS_MODE	=  Continuous Scanning
*TARGET		=  29
*XRAY_CHAR	=  K-ALPHA
*WAVE_LENGTH1	=  1.54059
*WAVE_LENGTH2	=  1.54441
*THICKNESS	=  0, 0.000000
*MU		=  0, 0.000000
*SCAN_MODE	=  2theta/theta
*SPEED_DIM	=  sec./step
*XUNIT		=  deg.
*YUNIT		=  counts
*SCALE_MODE	=  1
*REP_COUNT	=  0
*SE_COUNT	=  0
*STD_MATERIAL	=  Unknown, Unknown, 0.000000, 0.000000, 0.000000, 0.000000, 0.000000, 0.000000
*LATT_CONS	=  0, Unknown, Unknown, 0.000000, 0.000000, 0.000000, 0.000000, 0.000000, 0.000000
*SEC_COUNT	=  1
*TSPEC_SIZE	=  0
*EXTRA_SIZE	=  0
*MEMO		=

*BEGIN
*GROUP		=  0
*START		=  5
*STOP		=  90
*STEP		=  0.02
*OFFSET		=  0.000000
*SPEED		=  0.12
*SLIT_SPEC	=  0, 10.0mm, 10, 0.000000
*SLIT_SPEC	=  1, 0.625deg, 0.625, 0.000000
*SLIT_SPEC	=  2, 13.0mm, 13, 0.000000
*SLIT_SPEC	=  3, 13.0mm, 13, 0.000000
*KV		=  40
*MA		=  15
*LOW		=  0.000000
*HIGH		=  0.000000
*CTEMPER	=  0, 0.000000
*CTEMPER	=  1, 0.000000
*CTEMPER	=  2, 0.000000
*PAREX		=  0, 0.000000
*PAREX		=  1, 0.000000
*PAREX		=  2, 0.000000
*PAREX		=  3, 0.000000
*PAREX		=  4, 0.000000
*PAREX		=  5, 0.000000
*PAREX		=  6, 0.000000
*PAREX		=  7, 0.000000
*PAREX		=  8, 0.000000
*PAREX		=  9, 0.000000
*PAREX		=  10, 0.000000
*PAREX		=  11, 0.000000
*PAREX		=  12, 0.000000
*PAREX		=  13, 0.000000
*PAREX		=  14, 0.000000
*PAREX		=  15, 0.000000
*FULL_SCALE	=  37260
*INDEX		=  0, 0, 0
*COUNT		=  4251
1178, 1179, 1197, 1188
1167, 1141, 1132, 1161
1171, 1197, 1234, 1218
1187, 1180, 1171, 1179
1206, 1192, 1214, 1180
1152, 1125, 1119, 1158
1172, 1158, 1162, 1129
1081, 1141, 1222, 1226
1165, 1153, 1180, 1183
1185, 1214, 1200, 1168
1183, 1157, 1146, 1189
1207, 1198, 1181, 1149
1128, 1163, 1163, 1142
1139, 1150, 1187, 1150
1129, 1130, 1091, 1115
1127, 1114, 1110, 1144
1169, 1134, 1145, 1183
1148, 1146, 1199, 1181
1177, 1184, 1185, 1208
1199, 1179, 1146, 1135
1138, 1110, 1089, 1098
1132, 1139, 1140, 1143
1122, 1134, 1169, 1117
1066, 1086, 1081, 1114
1149, 1117, 1126, 1117
1077, 1087, 1110, 1148
1115, 1058, 1082, 1105
1115, 1113, 1118, 1088
1080, 1139, 1141, 1125
1109, 1075, 1085, 1134
1147, 1147, 1122, 1117
1118, 1108, 1118, 1089
1075, 1097, 1091, 1128
1111, 1097, 1146, 1131
1080, 1061, 1092, 1114
1107, 1135, 1168, 1118
1057, 1048, 1104, 1119
1096, 1107, 1115, 1100
1096, 1085, 1065, 1068
1054, 1059, 1082, 1079
1070, 1061, 1041, 1040
1048, 1023, 1058, 1066
1033, 1048, 1060, 1065
1056, 1058, 1058, 1088
1086, 1080, 1114, 1087
1070, 1087, 1048, 1019
1032, 1042, 1071, 1055
1038, 1045, 1029, 1024
1040, 1040, 1059, 1049
1036, 1043, 1035, 1075
1073, 1034, 1040, 1093
1062, 1052, 1084, 1063
1051, 1042, 1018, 1065
1098, 1085, 1079, 1106
1109, 1074, 1042, 1044
1060, 1027, 1032, 1088
1090, 1075, 1019, 984
1017, 1040, 1049, 1043
1057, 1107, 1090, 1058
1102, 1111, 1067, 1083
1061, 1058, 1045, 1048
1072, 1091, 1115, 1093
1054, 1043, 1073, 1100
1101, 1110, 1103, 1088
1104, 1117, 1076, 1094
1102, 1078, 1079, 1090
1136, 1101, 1095, 1139
1123, 1062, 1060, 1081
1096, 1111, 1123, 1114
1118, 1124, 1098, 1096
1116, 1147, 1155, 1147
1133, 1106, 1116, 1138
1160, 1135, 1103, 1134
1185, 1173, 1154, 1171
1173, 1155, 1152, 1112
1120, 1132, 1171, 1159
1154, 1154, 1174, 1156
1191, 1212, 1163, 1159
1203, 1208, 1211, 1205
1163, 1154, 1164, 1146
1166, 1196, 1230, 1225
1195, 1214, 1213, 1178
1164, 1181, 1202, 1195
1204, 1228, 1247, 1223
1236, 1258, 1243, 1255
1216, 1213, 1249, 1260
1220, 1167, 1147, 1204
1266, 1240, 1205, 1202
1203, 1200, 1203, 1210
1225, 1238, 1196, 1195
1244, 1230, 1217, 1215
1253, 1270, 1258, 1269
1285, 1235, 1217, 1244
1267, 1236, 1241, 1264
1243, 1240, 1256, 1258
1201, 1236, 1261, 1275
1272, 1263, 1276, 1272
1250, 1258, 1299, 1275
1239, 1201, 1227, 1264
1262, 1286, 1303, 1283
1285, 1255, 1226, 1293
1245, 1226, 1239, 1237
1271, 1287, 1304, 1267
1241, 1235, 1279, 1313
1304, 1267, 1263, 1309
1305, 1282, 1304, 1306
1276, 1304, 1316, 1286
1261, 1260, 1284, 1283
1308, 1306, 1297, 1251
1260, 1293, 1259, 1272
1285, 1318, 1291, 1298
1283, 1258, 1278, 1270
1284, 1279, 1269, 1297
1263, 1281, 1293, 1282
1283, 1294, 1296, 1276
1276, 1249, 1316, 1302
1306, 1313, 1309, 1297
1328, 1336, 1292, 1270
1279, 1323, 1340, 1287
1305, 1307, 1341, 1332
1341, 1327, 1290, 1310
1331, 1303, 1272, 1336
1366, 1344, 1316, 1325
1272, 1248, 1266, 1312
1316, 1323, 1346, 1314
1305, 1307, 1298, 1289
1274, 1306, 1288, 1265
1299, 1291, 1252, 1299
1306, 1315, 1299, 1288
1293, 1337, 1341, 1341
1293, 1307, 1330, 1314
1254, 1208, 1270, 1278
1276, 1264, 1288, 1322
1360, 1353, 1323, 1290
1275, 1255, 1278, 1366
1336, 1299, 1362, 1327
1294, 1271, 1296, 1302
1314, 1286, 1290, 1291
1314, 1339, 1307, 1298
1303, 1296, 1302, 1319
1306, 1263, 1287, 1323
1319, 1292, 1318, 1324
1299, 1300, 1290, 1330
1313, 1277, 1263, 1257
1295, 1343, 1308, 1293
1280, 1276, 1281, 1319
1323, 1329, 1299, 1297
1335, 1282, 1260, 1252
1317, 1295, 1318, 1312
1306, 1293, 1293, 1309
1338, 1329, 1289, 1285
1295, 1313, 1273, 1265
1280, 1322, 1306, 1264
1268, 1291, 1263, 1299
1333, 1306, 1307, 1331
1324, 1313, 1311, 1293
1283, 1313, 1309, 1299
1306, 1330, 1343, 1292
1295, 1281, 1298, 1306
1321, 1267, 1258, 1300
1327, 1305, 1307, 1273
1249, 1267, 1291, 1327
1284, 1298, 1307, 1297
1297, 1300, 1291, 1271
1273, 1286, 1331, 1314
1304, 1262, 1288, 1302
1252, 1246, 1249, 1257
1312, 1347, 1321, 1282
1266, 1293, 1275, 1277
1292, 1294, 1313, 1329
1298, 1239, 1306, 1309
1260, 1283, 1362, 1288
1277, 1286, 1316, 1289
1244, 1235, 1235, 1215
1288, 1323, 1324, 1308
1299, 1306, 1280, 1277
1317, 1313, 1300, 1295
1315, 1307, 1302, 1345
1318, 1275, 1271, 1282
1286, 1295, 1268, 1259
1297, 1306, 1288, 1295
1284, 1266, 1304, 1316
1320, 1281, 1307, 1309
1303, 1296, 1309, 1323
1253, 1276, 1339, 1314
1297, 1247, 1287, 1284
1268, 1286, 1320, 1326
1314, 1280, 1278, 1270
1290, 1281, 1310, 1252
1295, 1293, 1259, 1278
1274, 1279, 1279, 1253
1276, 1307, 1323, 1315
1267, 1295, 1306, 1290
1286, 1285, 1258, 1324
1311, 1234, 1281, 1245
1280, 1250, 1226, 1283
1269, 1267, 1312, 1301
1292, 1263, 1287, 1331
1317, 1294, 1278, 1258
1256, 1258, 1283, 1285
1282, 1261, 1272, 1319
1278, 1262, 1310, 1315
1311, 1300, 1265, 1249
1252, 1295, 1280, 1273
1265, 1264, 1270, 1293
1283, 1266, 1258, 1262
1290, 1283, 1265, 1248
1261, 1236, 1260, 1316
1298, 1287, 1238, 1243
1264, 1260, 1261, 1278
1281, 1270, 1274, 1288
1287, 1284, 1282, 1304
1295, 1260, 1263, 1311
1313, 1311, 1319, 1312
1331, 1299, 1287, 1279
1277, 1281, 1286, 1260
1226, 1227, 1286, 1310
1246, 1267, 1325, 1317
1293, 1267, 1283, 1277
1259, 1279, 1261, 1268
1277, 1252, 1262, 1288
1279, 1281, 1262, 1259
1282, 1273, 1288, 1282
1275, 1262, 1274, 1258
1254, 1271, 1248, 1266
1268, 1243, 1281, 1312
1328, 1315, 1270, 1254
1264, 1283, 1291, 1281
1283, 1284, 1245, 1261
1270, 1271, 1297, 1224
1250, 1270, 1260, 1272
1260, 1311, 1311, 1252
1238, 1266, 1266, 1253
1242, 1264, 1263, 1274
1275, 1256, 1228, 1227
1245, 1253, 1264, 1288
1312, 1291, 1264, 1237
1252, 1279, 1271, 1257
1234, 1243, 1255, 1251
1265, 1284, 1278, 1294
1297, 1288, 1308, 1297
1249, 1249, 1276, 1263
1254, 1277, 1244, 1253
1291, 1308, 1264, 1242
1253, 1272, 1297, 1279
1279, 1307, 1304, 1263
1247, 1275, 1298, 1278
1244, 1298, 1323, 1285
1270, 1265, 1300, 1304
1271, 1262, 1266, 1257
1253, 1251, 1252, 1271
1284, 1269, 1262, 1277
1245, 1259, 1299, 1323
1296, 1281, 1270, 1279
1288, 1280, 1235, 1246
1248, 1215, 1250, 1278
1234, 1243, 1255, 1239
1250, 1237, 1236, 1263
1257, 1239, 1245, 1232
1254, 1318, 1307, 1279
1270, 1281, 1282, 1282
1258, 1260, 1270, 1301
1259, 1239, 1281, 1246
1246, 1287, 1283, 1275
1261, 1293, 1357, 1336
1350, 1330, 1267, 1287
1295, 1290, 1289, 1309
1293, 1250, 1251, 1287
1290, 1278, 1264, 1275
1275, 1242, 1276, 1279
1276, 1309, 1295, 1270
1281, 1306, 1306, 1302
1268, 1251, 1278, 1289
1291, 1279, 1296, 1314
1282, 1276, 1298, 1309
1323, 1300, 1261, 1278
1294, 1292, 1271, 1259
1268, 1254, 1295, 1324
1264, 1250, 1281, 1278
1294, 1292, 1275, 1284
1287, 1285, 1265, 1281
1292, 1276, 1286, 1300
1299, 1297, 1319, 1287
1268, 1273, 1274, 1289
1298, 1280, 1280, 1298
1292, 1272, 1275, 1270
1286, 1308, 1275, 1299
1277, 1253, 1267, 1270
1248, 1256, 1306, 1279
1292, 1311, 1281, 1259
1276, 1272, 1252, 1250
1254, 1283, 1289, 1277
1295, 1302, 1267, 1242
1271, 1291, 1292, 1263
1260, 1285, 1311, 1301
1280, 1214, 1215, 1308
1309, 1271, 1246, 1247
1265, 1242, 1234, 1258
1277, 1266, 1263, 1297
1301, 1285, 1279, 1269
1271, 1279, 1266, 1253
1258, 1280, 1268, 1252
1250, 1232, 1238, 1248
1258, 1309, 1318, 1284
1262, 1256, 1250, 1258
1303, 1314, 1291, 1280
1270, 1287, 1285, 1247
1247, 1296, 1325, 1312
1297, 1294, 1281, 1288
1301, 1305, 1307, 1286
1267, 1284, 1301, 1256
1225, 1250, 1240, 1245
1287, 1297, 1306, 1296
1259, 1243, 1248, 1271
1295, 1268, 1295, 1338
1271, 1245, 1282, 1274
1263, 1254, 1248, 1288
1293, 1254, 1255, 1277
1292, 1298, 1292, 1284
1279, 1299, 1339, 1317
1285, 1276, 1259, 1263
1256, 1265, 1300, 1307
1278, 1271, 1288, 1286
1288, 1308, 1305, 1299
1290, 1267, 1259, 1287
1305, 1273, 1263, 1279
1273, 1251, 1242, 1294
1310, 1265, 1256, 1282
1272, 1266, 1286, 1261
1282, 1324, 1298, 1258
1260, 1271, 1283, 1294
1253, 1253, 1300, 1286
1288, 1300, 1270, 1273
1297, 1294, 1305, 1308
1295, 1278, 1252, 1265
1276, 1295, 1331, 1323
1329, 1332, 1311, 1292
1254, 1234, 1246, 1277
1278, 1258, 1249, 1253
1251, 1252, 1300, 1330
1298, 1278, 1255, 1250
1265, 1278, 1264, 1263
1268, 1277, 1306, 1341
1295, 1261, 1286, 1283
1281, 1281, 1281, 1248
1288, 1327, 1291, 1250
1238, 1235, 1259, 1296
1282, 1285, 1299, 1308
1293, 1290, 1284, 1273
1302, 1325, 1313, 1272
1286, 1302, 1267, 1255
1266, 1289, 1306, 1250
1253, 1272, 1255, 1287
1310, 1251, 1217, 1228
1230, 1267, 1262, 1233
1248, 1285, 1296, 1284
1260, 1236, 1254, 1282
1302, 1285, 1255, 1264
1227, 1219, 1269, 1271
1245, 1247, 1272, 1267
1299, 1251, 1236, 1331
1324, 1298, 1304, 1292
1318, 1346, 1314, 1277
1287, 1286, 1263, 1285
1295, 1273, 1249, 1240
1276, 1293, 1269, 1254
1262, 1299, 1273, 1295
1323, 1275, 1275, 1281
1299, 1324, 1262, 1270
1294, 1260, 1221, 1220
1284, 1285, 1288, 1265
1246, 1271, 1312, 1314
1276, 1278, 1329, 1342
1303, 1267, 1285, 1264
1242, 1293, 1320, 1299
1289, 1275, 1248, 1279
1271, 1284, 1344, 1280
1233, 1243, 1264, 1309
1332, 1302, 1294, 1287
1297, 1295, 1297, 1293
1296, 1294, 1262, 1281
1299, 1320, 1340, 1300
1309, 1324, 1312, 1343
1314, 1311, 1325, 1303
1313, 1340, 1328, 1332
1352, 1372, 1393, 1387
1360, 1360, 1352, 1375
1392, 1402, 1408, 1438
1441, 1433, 1499, 1520
1521, 1574, 1609, 1595
1671, 1742, 1726, 1789
1901, 2007, 2101, 2262
2439, 2517, 2632, 2702
2672, 2621, 2660, 2699
2677, 2651, 2529, 2387
2339, 2227, 2104, 1971
1911, 1853, 1755, 1628
1547, 1546, 1587, 1575
1481, 1370, 1362, 1413
1401, 1358, 1325, 1327
1329, 1334, 1375, 1343
1298, 1293, 1329, 1325
1272, 1277, 1304, 1303
1276, 1284, 1318, 1341
1360, 1300, 1271, 1294
1299, 1316, 1318, 1336
1339, 1279, 1269, 1286
1257, 1260, 1303, 1281
1269, 1302, 1315, 1297
1276, 1245, 1273, 1293
1296, 1296, 1315, 1303
1262, 1244, 1294, 1297
1255, 1244, 1233, 1225
1254, 1270, 1304, 1278
1261, 1288, 1288, 1270
1274, 1283, 1292, 1274
1278, 1300, 1281, 1245
1265, 1253, 1257, 1247
1265, 1279, 1251, 1245
1260, 1269, 1275, 1285
1263, 1284, 1303, 1280
1246, 1277, 1320, 1305
1263, 1277, 1307, 1304
1319, 1281, 1265, 1306
1307, 1275, 1306, 1321
1283, 1288, 1282, 1280
1290, 1274, 1261, 1282
1271, 1261, 1265, 1260
1312, 1350, 1354, 1322
1278, 1262, 1263, 1258
1263, 1261, 1266, 1263
1256, 1277, 1273, 1279
1293, 1268, 1260, 1305
1327, 1299, 1309, 1287
1251, 1267, 1262, 1269
1266, 1284, 1303, 1276
1272, 1258, 1255, 1276
1278, 1251, 1259, 1259
1268, 1286, 1270, 1294
1281, 1277, 1311, 1328
1293, 1289, 1288, 1308
1286, 1265, 1278, 1275
1238, 1265, 1286, 1285
1290, 1297, 1304, 1300
1291, 1322, 1328, 1281
1277, 1307, 1320, 1277
1279, 1321, 1313, 1278
1299, 1318, 1310, 1310
1315, 1316, 1346, 1348
1320, 1302, 1268, 1284
1264, 1285, 1348, 1322
1264, 1269, 1291, 1283
1325, 1354, 1327, 1307
1311, 1340, 1358, 1355
1365, 1373, 1366, 1379
1368, 1360, 1342, 1303
1320, 1369, 1387, 1403
1413, 1401, 1385, 1388
1396, 1433, 1440, 1451
1513, 1543, 1526, 1514
1493, 1525, 1580, 1556
1548, 1623, 1709, 1753
1742, 1765, 1794, 1847
1971, 2007, 2091, 2196
2263, 2397, 2565, 2696
2834, 3010, 3194, 3291
3393, 3537, 3662, 3622
3605, 3705, 3726, 3634
3598, 3556, 3463, 3327
3170, 3023, 2841, 2715
2594, 2421, 2284, 2190
2112, 2021, 1902, 1802
1749, 1690, 1648, 1623
1601, 1569, 1526, 1460
1428, 1473, 1447, 1417
1407, 1410, 1393, 1341
1321, 1362, 1354, 1319
1357, 1329, 1310, 1326
1334, 1329, 1321, 1326
1315, 1304, 1314, 1324
1324, 1343, 1348, 1326
1313, 1316, 1305, 1316
1320, 1324, 1327, 1345
1335, 1328, 1326, 1353
1337, 1306, 1305, 1299
1264, 1263, 1270, 1298
1328, 1301, 1271, 1278
1341, 1322, 1300, 1303
1321, 1308, 1280, 1294
1321, 1329, 1319, 1329
1337, 1350, 1360, 1333
1341, 1344, 1341, 1379
1386, 1383, 1406, 1446
1457, 1446, 1446, 1431
1438, 1422, 1405, 1417
1423, 1394, 1385, 1397
1333, 1314, 1335, 1342
1356, 1348, 1340, 1369
1343, 1291, 1280, 1284
1266, 1265, 1281, 1279
1301, 1280, 1254, 1297
1308, 1304, 1299, 1284
1282, 1250, 1236, 1256
1269, 1295, 1334, 1332
1298, 1299, 1291, 1252
1257, 1249, 1234, 1260
1283, 1278, 1267, 1251
1246, 1263, 1252, 1262
1304, 1284, 1288, 1309
1266, 1294, 1335, 1336
1334, 1298, 1284, 1283
1265, 1249, 1259, 1320
1337, 1303, 1292, 1263
1260, 1298, 1312, 1294
1262, 1235, 1297, 1364
1316, 1314, 1322, 1254
1269, 1327, 1330, 1332
1301, 1270, 1295, 1320
1290, 1243, 1239, 1262
1270, 1259, 1250, 1245
1262, 1289, 1279, 1280
1343, 1331, 1277, 1257
1275, 1300, 1273, 1285
1278, 1250, 1261, 1272
1279, 1266, 1279, 1300
1341, 1327, 1292, 1280
1254, 1246, 1273, 1297
1294, 1288, 1253, 1250
1285, 1268, 1255, 1298
1326, 1302, 1250, 1259
1299, 1270, 1297, 1305
1261, 1248, 1221, 1233
1258, 1276, 1286, 1292
1277, 1274, 1307, 1318
1305, 1295, 1318, 1307
1246, 1236, 1301, 1313
1273, 1288, 1297, 1285
1273, 1272, 1295, 1272
1275, 1288, 1244, 1248
1285, 1296, 1304, 1305
1263, 1287, 1324, 1281
1283, 1304, 1287, 1260
1268, 1283, 1283, 1314
1296, 1244, 1263, 1316
1319, 1298, 1289, 1252
1233, 1282, 1290, 1281
1297, 1298, 1295, 1289
1275, 1256, 1265, 1254
1266, 1295, 1273, 1258
1293, 1291, 1267, 1261
1264, 1251, 1235, 1249
1267, 1279, 1304, 1295
1268, 1279, 1278, 1265
1257, 1250, 1258, 1238
1240, 1257, 1260, 1259
1258, 1272, 1273, 1274
1283, 1327, 1298, 1235
1265, 1273, 1276, 1275
1273, 1270, 1301, 1300
1263, 1240, 1254, 1292
1286, 1287, 1287, 1262
1245, 1253, 1258, 1245
1242, 1269, 1258, 1262
1266, 1243, 1281, 1281
1277, 1263, 1234, 1274
1316, 1299, 1280, 1294
1291, 1269, 1265, 1263
1315, 1298, 1273, 1291
1265, 1242, 1243, 1242
1274, 1276, 1289, 1289
1272, 1290, 1274, 1266
1271, 1274, 1270, 1274
1297, 1285, 1266, 1275
1251, 1241, 1265, 1270
1231, 1218, 1242, 1236
1265, 1255, 1262, 1292
1280, 1276, 1306, 1313
1324, 1305, 1292, 1276
1261, 1257, 1246, 1245
1265, 1267, 1290, 1267
1232, 1247, 1264, 1307
1333, 1329, 1304, 1263
1281, 1294, 1276, 1277
1265, 1308, 1267, 1289
1345, 1315, 1300, 1310
1335, 1325, 1315, 1295
1281, 1301, 1319, 1326
1318, 1320, 1295, 1308
1295, 1258, 1273, 1283
1280, 1298, 1309, 1276
1258, 1291, 1288, 1296
1277, 1313, 1327, 1291
1293, 1241, 1255, 1291
1256, 1276, 1301, 1278
1261, 1254, 1264, 1261
1238, 1287, 1307, 1246
1260, 1261, 1244, 1246
1267, 1258, 1266, 1279
1289, 1285, 1299, 1245
1243, 1272, 1286, 1277
1271, 1266, 1279, 1272
1276, 1276, 1290, 1255
1276, 1293, 1296, 1287
1284, 1296, 1250, 1242
1247, 1257, 1281, 1292
1272, 1290, 1269, 1242
1276, 1260, 1258, 1286
1247, 1224, 1239, 1264
1272, 1271, 1233, 1254
1248, 1272, 1251, 1258
1281, 1291, 1281, 1303
1282, 1223, 1272, 1299
1227, 1233, 1245, 1251
1268, 1232, 1239, 1283
1271, 1262, 1287, 1261
1253, 1255, 1253, 1309
1243, 1247, 1297, 1270
1248, 1258, 1283, 1276
1254, 1232, 1311, 1303
1259, 1263, 1265, 1253
1274, 1266, 1261, 1286
1284, 1257, 1223, 1248
1278, 1286, 1321, 1311
1267, 1246, 1258, 1248
1268, 1254, 1262, 1254
1292, 1294, 1292, 1311
1270, 1258, 1262, 1235
1265, 1284, 1255, 1245
1268, 1235, 1246, 1244
1257, 1273, 1243, 1210
1207, 1273, 1260, 1253
1296, 1281, 1318, 1261
1262, 1256, 1222, 1284
1284, 1277, 1283, 1278
1300, 1263, 1260, 1311
1274, 1284, 1283, 1238
1254, 1287, 1298, 1240
1231, 1237, 1272, 1298
1268, 1253, 1238, 1227
1238, 1276, 1278, 1292
1275, 1233, 1310, 1276
1280, 1283, 1306, 1296
1260, 1264, 1250, 1273
1319, 1231, 1273, 1297
1233, 1249, 1236, 1258
1264, 1223, 1255, 1250
1282, 1274, 1274, 1304
1276, 1239, 1289, 1315
1305, 1295, 1257, 1243
1275, 1268, 1260, 1269
1260, 1276, 1269, 1284
1315, 1270, 1255, 1267
1290, 1302, 1246, 1214
1184, 1203, 1271, 1243
1245, 1268, 1236, 1280
1285, 1282, 1288, 1295
1333, 1264, 1223, 1205
1270, 1300, 1280, 1221
1228, 1281, 1293, 1276
1263, 1240, 1233, 1298
1255, 1261, 1261, 1272
1261, 1253, 1231, 1276
1262, 1240, 1255, 1278
1269, 1273, 1271, 1290
1261, 1204, 1245, 1256
1296, 1302, 1272, 1267
1267, 1272, 1293, 1254
1281, 1247, 1269, 1250
1215, 1265, 1280, 1234
1185, 1251, 1273, 1278
1266, 1259, 1183, 1242
1308, 1240, 1251, 1253
1301, 1276, 1272, 1271
1295, 1223, 1266, 1290
1294, 1318, 1271, 1276
1251, 1271, 1271, 1284
1284, 1322, 1291, 1255
1240, 1275, 1273, 1259
1279, 1251, 1250, 1310
1251, 1288, 1258, 1265
1258, 1285, 1221, 1226
1248, 1289, 1262, 1256
1302, 1279, 1261, 1292
1287, 1320, 1312, 1322
1302, 1314, 1268, 1293
1242, 1211, 1311, 1231
1253, 1291, 1275, 1276
1309, 1320, 1268, 1291
1282, 1287, 1311, 1330
1311, 1332, 1270, 1271
1274, 1282, 1282, 1315
1366, 1298, 1314, 1292
1313, 1281, 1284, 1325
1350, 1308, 1297, 1338
1325, 1328, 1292, 1300
1328, 1328, 1309, 1363
1343, 1382, 1358, 1322
1353, 1331, 1375, 1330
1351, 1389, 1406, 1415
1421, 1444, 1418, 1468
1532, 1510, 1494, 1518
1564, 1609, 1583, 1667
1735, 1700, 1746, 1718
1819, 1845, 1889, 1964
1975, 1985, 2015, 2021
2074, 2001, 1996, 2033
2148, 2094, 2009, 2040
1997, 2026, 1986, 1903
1925, 1883, 1912, 1824
1848, 1826, 1713, 1699
1629, 1599, 1531, 1595
1585, 1601, 1545, 1496
1466, 1498, 1500, 1441
1431, 1360, 1394, 1363
1309, 1331, 1336, 1383
1324, 1276, 1331, 1291
1292, 1341, 1395, 1368
1288, 1339, 1301, 1316
1297, 1315, 1331, 1297
1287, 1319, 1258, 1280
1321, 1320, 1327, 1299
1291, 1261, 1256, 1305
1328, 1266, 1290, 1218
1286, 1306, 1218, 1235
1266, 1272, 1286, 1297
1241, 1248, 1308, 1301
1262, 1283, 1273, 1259
1250, 1306, 1294, 1289
1262, 1274, 1256, 1269
1237, 1271, 1253, 1226
1283, 1284, 1257, 1287
1274, 1236, 1271, 1292
1279, 1258, 1251, 1281
1253, 1280, 1317, 1288
1264, 1315, 1317, 1326
1291, 1276, 1289, 1226
1291, 1308, 1279, 1287
1303, 1245, 1236, 1281
1223, 1254, 1274, 1285
1256, 1239, 1233, 1271
1265, 1285, 1257, 1236
1257, 1259, 1282, 1254
1221, 1257, 1245, 1280
1292, 1285, 1249, 1233
1327, 1267, 1285, 1215
1302, 1312, 1242, 1241
1310, 1254, 1286, 1314
1256, 1255, 1269, 1310
1272, 1309, 1287, 1269
1219, 1283, 1319, 1321
1314, 1291, 1270, 1260
1275, 1294, 1286, 1254
1267, 1226, 1249, 1257
1256, 1279, 1307, 1261
1257, 1298, 1298, 1273
1317, 1250, 1274, 1264
1298, 1292, 1245, 1236
1249, 1260, 1280, 1221
1292, 1276, 1264, 1228
1293, 1291, 1311, 1242
1254, 1297, 1271, 1270
1264, 1252, 1265, 1288
1266, 1232, 1255, 1257
1268, 1288, 1270, 1271
1225, 1272, 1291, 1299
1275, 1316, 1283, 1314
1297, 1293, 1309, 1284
1250, 1285, 1261, 1271
1279, 1259, 1257, 1285
1251, 1272, 1288, 1239
1250, 1260, 1256, 1247
1285, 1284, 1290, 1284
1264, 1286, 1270, 1252
1220, 1251, 1309, 1277
1282, 1287, 1243, 1230
1215, 1296, 1258, 1257
1250, 1257, 1277, 1296
1281, 1292, 1236, 1239
1250, 1256, 1266, 1231
1223, 1256, 1210, 1232
1241, 1257, 1274, 1274
1295, 1274, 1311, 1265
1244, 1265, 1305, 1254
1228, 1229, 1261, 1247
1253, 1338, 1314, 1320
1339, 1270, 1234, 1274
1261, 1253, 1257, 1283
1305, 1280, 1266, 1329
1276, 1229, 1303, 1263
1259, 1276, 1231, 1241
1254, 1241, 1283, 1306
1272, 1244, 1301, 1276
1202, 1239, 1264, 1243
1262, 1277, 1276, 1258
1266, 1256, 1272, 1259
1274, 1247, 1247, 1232
1216, 1268, 1281, 1267
1246, 1198, 1253, 1250
1244, 1241, 1259, 1242
1241, 1269, 1269, 1269
1253, 1212, 1266, 1258
1277, 1270, 1267, 1269
1275, 1294, 1267, 1240
1240, 1260, 1228, 1259
1270, 1253, 1270, 1246
1229, 1277, 1286, 1245
1272, 1269, 1243, 1241
1218, 1277, 1255, 1277
1270, 1240, 1230, 1268
1282, 1261, 1253, 1274
1270, 1262, 1253, 1257
1313, 1311, 1281, 1295
1234, 1277, 1252, 1300
1338, 1300, 1301, 1277
1255, 1265, 1256, 1250
1230, 1262, 1275, 1243
1216, 1241, 1268, 1300
1247, 1220, 1269, 1246
1236, 1241, 1269, 1278
1240, 1256, 1260, 1287
1314, 1263, 1269, 1279
1275, 1248, 1224, 1256
1246, 1240, 1281, 1265
1240, 1231, 1229, 1232
1256, 1282, 1277, 1291
1257, 1251, 1260, 1226
1267, 1259, 1256, 1275
1266, 1257, 1266, 1288
1330, 1310, 1288, 1284
1252, 1278, 1276, 1274
1305, 1269, 1246, 1276
1239, 1242, 1287, 1294
1259, 1234, 1240, 1271
1220, 1217, 1253, 1291
1319, 1314, 1304, 1292
1262, 1283, 1312, 1290
1252, 1264, 1263, 1253
1277, 1300, 1284, 1257
1255, 1268, 1285, 1246
1261, 1301, 1310, 1296
1292, 1272, 1260, 1276
1297, 1281, 1297, 1326
1308, 1307, 1281, 1272
1284, 1243, 1244, 1295
1292, 1299, 1280, 1257
1286, 1328, 1322, 1270
1280, 1300, 1304, 1312
1318, 1300, 1303, 1322
1321, 1308, 1282, 1282
1313, 1304, 1308, 1342
1338, 1330, 1362, 1349
1317, 1318, 1341, 1356
1359, 1375, 1365, 1347
1393, 1441, 1434, 1444
1446, 1432, 1412, 1413
1427, 1465, 1494, 1483
1463, 1475, 1457, 1456
1461, 1454, 1487, 1493
1479, 1459, 1458, 1455
1468, 1488, 1479, 1499
1475, 1441, 1491, 1485
1452, 1425, 1413, 1436
1437, 1405, 1416, 1409
1406, 1401, 1368, 1334
1314, 1338, 1344, 1363
1360, 1320, 1323, 1342
1355, 1331, 1325, 1324
1292, 1281, 1301, 1331
1324, 1280, 1300, 1287
1261, 1315, 1314, 1258
1267, 1319, 1336, 1271
1240, 1251, 1258, 1261
1263, 1275, 1277, 1271
1262, 1271, 1264, 1281
1294, 1256, 1269, 1317
1321, 1299, 1286, 1298
1279, 1280, 1281, 1264
1252, 1235, 1257, 1248
1264, 1279, 1256, 1260
1267, 1304, 1330, 1318
1307, 1262, 1265, 1292
1267, 1239, 1238, 1264
1254, 1251, 1279, 1272
1284, 1289, 1247, 1252
1281, 1272, 1239, 1277
1273, 1278, 1317, 1298
1266, 1246, 1262, 1264
1275, 1287, 1289, 1312
1298, 1273, 1276, 1257
1279, 1270, 1250, 1271
1304, 1312, 1303, 1302
1307, 1312, 1293, 1297
1330, 1337, 1339, 1326
1291, 1294, 1294, 1277
1279, 1306, 1324, 1331
1365, 1351, 1310, 1352
1342, 1325, 1352, 1335
1315, 1319, 1340, 1314
1290, 1301, 1350, 1360
1307, 1311, 1343, 1334
1329, 1332, 1359, 1362
1349, 1345, 1311, 1312
1336, 1323, 1365, 1414
1423, 1408, 1403, 1401
1407, 1416, 1423, 1427
1408, 1396, 1431, 1447
1444, 1416, 1404, 1427
1428, 1482, 1466, 1441
1447, 1432, 1439, 1461
1395, 1353, 1384, 1401
1408, 1406, 1378, 1381
1387, 1355, 1336, 1315
1332, 1374, 1361, 1350
1331, 1309, 1314, 1306
1311, 1314, 1284, 1275
1287, 1296, 1292, 1282
1271, 1253, 1297, 1313
1256, 1281, 1289, 1290
1303, 1299, 1313, 1294
1290, 1318, 1311, 1254
1259, 1312, 1286, 1264
1253, 1277, 1287, 1281
1272, 1297, 1264, 1219
1248, 1285, 1257, 1219
1251, 1281, 1280, 1285
1269, 1270, 1254, 1248
1260, 1254, 1235, 1235
1232, 1249, 1286, 1305
1305, 1282, 1257, 1284
1277, 1261, 1267, 1244
1246, 1274, 1278, 1258
1234, 1241, 1300, 1297
1289, 1276, 1278, 1282
1265, 1242, 1238, 1293
1287, 1236, 1256, 1274
1259, 1254, 1266, 1256
1269, 1295, 1272, 1231
1204, 1232, 1280, 1285
1263, 1268, 1269, 1253
1263, 1262, 1236, 1271
1308, 1293, 1238, 1229
1268, 1268, 1249, 1284
1282, 1261, 1255, 1238
1229, 1264, 1282, 1279
1287, 1271, 1270, 1291
1295, 1299, 1271, 1248
1264, 1249, 1257, 1286
1280, 1265, 1221, 1219
1251, 1250, 1248, 1222
1215, 1252, 1257, 1257
1235, 1247, 1275, 1275
1266, 1233, 1229, 1247
1255, 1221, 1247, 1301
1301, 1272, 1251, 1284
1286, 1259, 1255, 1253
1299, 1314, 1264, 1268
1308, 1294, 1278, 1269
1279, 1309, 1332, 1312
1300, 1294, 1253, 1249
1269, 1262, 1243, 1264
1255, 1237, 1262, 1247
1249, 1286, 1280, 1292
1276, 1237, 1241, 1247
1252, 1264, 1258, 1233
1254, 1277, 1256, 1258
1257, 1260, 1264, 1299
1351, 1313, 1277, 1261
1231, 1240, 1249, 1238
1235, 1211, 1247, 1325
1291, 1238, 1257, 1265
1251, 1269, 1271, 1247
1251, 1252, 1277, 1296
1268, 1270, 1257, 1243
1265, 1244, 1237, 1246
1258, 1295, 1274, 1254
1249, 1231, 1250, 1280
1288, 1274, 1253, 1242
1263, 1259, 1255, 1273
1264, 1253, 1241, 1277
1283, 1266, 1294, 1294
1289, 1278, 1287, 1306
1286, 1264, 1249, 1224
1229, 1252, 1249, 1254
1283, 1283, 1261, 1267
1258, 1233, 1249, 1284
1292, 1288, 1276, 1285
1288, 1261, 1258, 1248
1234, 1243, 1257, 1248
1247, 1241, 1243, 1286
1331, 1322, 1280, 1246
1268, 1262, 1245, 1226
1222, 1272, 1260, 1258
1323, 1313, 1290, 1274
1269, 1252, 1233, 1277
1246, 1202, 1242, 1283
1302, 1287, 1244, 1251
1269, 1263, 1249, 1270
1267, 1244, 1241, 1229
1247, 1277, 1303, 1286
1288, 1272, 1237, 1241
1262, 1220, 1206, 1207
1220, 1274, 1296, 1276
1256, 1243, 1231, 1266
1290, 1265, 1238, 1200
1210, 1262, 1283, 1256
1278, 1294, 1266, 1274
1290, 1275, 1272, 1243
1242, 1303, 1351, 1317
1276, 1278, 1281, 1271
1266, 1272, 1269, 1273
1290, 1292, 1279, 1296
1291, 1267, 1264, 1261
1268, 1278, 1268, 1270
1288, 1278, 1261, 1261
1243, 1253, 1244, 1243
1277, 1273, 1268, 1274
1274, 1251, 1262, 1257
1285, 1276, 1248, 1265
1297, 1295, 1262, 1268
1280, 1268, 1222, 1231
1248, 1221, 1224, 1257
1283, 1261, 1253, 1237
1226, 1242, 1217, 1230
1254, 1245, 1233, 1253
1261, 1278, 1279, 1236
1223, 1236, 1249, 1257
1260, 1243, 1274, 1262
1247, 1265, 1248, 1275
1276, 1224, 1226, 1219
1236, 1265, 1264, 1263
1282, 1279, 1238, 1219
1255, 1241, 1204, 1219
1243, 1231, 1257, 1277
1287, 1269, 1276, 1281
1266, 1261, 1262, 1283
1280, 1238, 1258, 1305
1286, 1282, 1256, 1259
1270, 1262, 1268, 1287
1261, 1245, 1252, 1271
1272, 1260, 1252, 1262
1283, 1283, 1278, 1260
1253, 1219, 1220, 1258
1252, 1235, 1251, 1268
1290, 1258, 1247, 1265
1268, 1245, 1269, 1254
1240, 1258, 1258, 1264
1228, 1216, 1237, 1255
1258, 1273, 1299, 1281
1254, 1286, 1273, 1268
1301, 1288, 1263, 1233
1234, 1235, 1220, 1221
1232, 1242, 1247, 1258
1275, 1283, 1268, 1240
1230, 1241, 1245, 1237
1259, 1272, 1259, 1265
1283, 1258, 1242, 1258
1274, 1300, 1315, 1277
1276, 1289, 1253, 1230
1252, 1266, 1232, 1224
1256, 1257, 1244, 1249
1235, 1245, 1254, 1236
1244, 1269, 1264, 1280
1296, 1296, 1296
*END

*EOF